relative_time,LinearAccelerometerSensor,AccX,AccY
0,0.018035302096153723,-0.47805002331733704,
1,,,
9,,-0.4639500081539154,5.898000240325928
69,0.015277195319418093,-0.38895002007484436,
70,,-0.35100001096725464,
71,,,5.842950344085693
72,,,5.841000080108643
74,0.004849511073725893,-0.3820500075817108,5.862000465393066
138,,-0.40905001759529114,
139,,-0.4300500154495239,5.862000465393066
140,,,5.766000270843506
141,0.010327635732724385,,
143,,-0.4300500154495239,
144,,,5.7900004386901855
207,,-0.4210500121116638,
208,,-0.33000001311302185,
209,,,5.809950351715088
210,,,5.797950267791748
211,0.03340357342208568,-0.4759500324726105,
227,0.0221766643862365,-0.49695003032684326,5.749950408935547
228,,,5.788050174713135
229,,-0.5230500102043152,
230,,,5.860050201416016
237,0.020587151756704062,-0.5760000348091125,5.910000324249268
238,,,
239,,-0.6100500226020813,5.986950397491455
244,,-0.6049500107765198,5.989050388336182
245,,,
249,,-0.612000048160553,
250,,,5.989050388336182
255,0.036545379570362004,-0.583050012588501,5.941050052642822
259,,-0.5209500193595886,
260,,,5.881050109863281
264,,-0.49995002150535583,
265,,,5.85705041885376
269,,-0.46605002880096436,
270,,,5.8309502601623535
274,0.022225104602187677,,
275,,-0.4440000355243683,5.8120503425598145
282,,-0.4420500099658966,5.806950092315674
285,,-0.4639500081539154,5.818950176239014
300,,-0.46800002455711365,5.781000137329102
301,0.015351240935640213,,
307,,-0.4039500057697296,5.749950408935547
318,,-0.34200000762939453,5.7019500732421875
319,0.027458143220962346,,
321,,-0.21900001168251038,
322,,,5.557950496673584
325,,-0.39195001125335693,
326,,,5.565000057220459
334,,-0.4249500334262848,
335,,,5.613000392913818
337,,-0.4129500091075897,
338,0.04579903359322117,,
341,,-0.45600003004074097,5.842950344085693
350,,-0.2959500253200531,5.616000175476074
355,,0.20295001566410065,
356,0.05719011239562635,,4.966950416564941
360,,,
361,,-0.30105000734329224,
362,,,5.4720001220703125
363,,,
365,,-0.7840500473976135,6.130050182342529
378,0.020765200061312633,-0.8160000443458557,6.288000106811523
380,,-0.1789500117301941,5.826000213623047
388,,0.013950000517070293,
389,,,5.640000343322754
390,,0.0499500036239624,
391,,,5.551050186157227
395,0.1003292103690715,0.013950000517070293,5.53695011138916
400,,-0.05400000140070915,
401,,,5.611050128936768
405,,-0.11400000751018524,5.7109503746032715
406,,,
412,,-0.17400000989437103,
413,,,5.764050483703613
415,,-0.23895001411437988,
416,0.07526931898413886,,5.773950099945068
418,,,
421,,,
422,,-0.2670000195503235,5.749950408935547
425,,-0.29100000858306885,
426,,,5.698950290679932
433,,-0.21900001168251038,
434,,,5.584050178527832
437,,-0.1380000114440918,5.512950420379639
438,0.05121924113686341,,
442,,-0.04905000329017639,5.500950336456299
445,,0.0,
446,,,5.503050327301025
451,,0.06195000186562538,5.569950103759766
452,,,
462,,0.19395001232624054,
463,0.08909574398524271,,5.697000503540039
467,,-0.04500000178813934,6.175950527191162
472,,-0.2650500237941742,
473,,,6.403050422668457
476,,-0.23595000803470612,
477,0.05821710569047878,,6.415050506591797
480,,-0.10005000233650208,
481,,,6.307950496673584
487,,0.08100000023841858,6.178050518035889
490,,0.20595000684261322,
491,,,6.12600040435791
496,0.08445997363454337,0.3570000231266022,6.094050407409668
501,,0.4549500346183777,
502,,,6.01800012588501
505,,0.48600003123283386,
507,,,5.910000324249268
518,,0.4519500136375427,
519,0.09319327374314171,,5.7709503173828125
523,,0.3139500021934509,5.7109503746032715
524,,,
527,,0.3469500243663788,5.7109503746032715
528,,,
531,,0.44505003094673157,5.698950290679932
549,,0.5220000147819519,
550,,0.7450500130653381,5.653950214385986
551,,,5.404950141906738
552,0.13658362932223556,,
554,,0.7519500255584717,
556,0.1414159281458853,0.7660500407218933,
557,,,5.781000137329102
569,,0.7780500650405884,5.7709503173828125
570,,,5.725950241088867
572,,0.8350500464439392,5.692050457000732
576,,1.1040000915527344,5.593950271606445
577,0.14079246219141384,,
584,,0.9600000381469727,5.5410003662109375
592,,0.856950044631958,5.517000198364258
596,,0.7540500164031982,
597,0.1890849537560032,,5.719050407409668
601,,0.6700500249862671,
602,,,5.920050144195557
615,,0.6649500131607056,
616,,,6.015000343322754
617,0.15307914086098526,0.7180500626564026,6.13800048828125
621,,0.8160000443458557,
622,,,6.043950080871582
627,,0.703950047492981,5.917050361633301
635,,0.5359500050544739,5.853000164031982
636,,0.3450000286102295,5.848050117492676
637,0.10128335003204317,,
645,,0.3330000042915344,5.995950222015381
653,,0.40005001425743103,
654,,0.43605002760887146,6.220950126647949
657,0.10823933205611945,0.4429500102996826,
659,,,6.006000518798828
667,,0.49800002574920654,
668,,,5.623050212860107
679,0.05819038789386482,0.7540500164031982,5.398050308227539
686,,0.9910500645637512,5.683050155639648
693,,1.234950065612793,
694,,,5.728050231933594
702,,0.9979500770568848,5.7109503746032715
703,0.16042718997308852,,
707,,0.7210500240325928,5.805000305175781
708,,,
712,,0.6199500560760498,
713,,,6.013050079345703
719,,0.5820000171661377,
720,0.13503732106898675,,6.115950107574463
730,,0.534000039100647,
731,,,6.364950180053711
733,,0.6850500106811523,6.729000091552734
737,,0.6300000548362732,
739,,,6.516000270843506
740,0.10147077746843171,,
742,,0.6340500116348267,
743,,,6.13800048828125
749,,0.5940000414848328,5.877000331878662
752,,0.5770500302314758,
753,,,5.722950458526611
757,,0.5719500184059143,5.640000343322754
758,0.1402005638335865,,
763,,0.5749500393867493,5.587050437927246
768,,0.5389500260353088,5.553000450134277
769,,,
772,,0.505050003528595,5.527050495147705
777,,,
778,0.10989970557078586,0.5290500521659851,5.584050178527832
785,,0.5890500545501709,
786,,,5.746950149536133
791,,0.6799500584602356,6.078000068664551
792,,0.8860500454902649,
793,,,6.298050403594971
798,0.055896803680737406,1.3240500688552856,6.262050151824951
802,,1.3140000104904175,5.8720502853393555
803,,,
811,,0.9550500512123108,5.356950283050537
812,,0.7300500273704529,
814,,,5.134050369262695
817,,0.6060000061988831,
818,0.1643466135632567,,5.326050281524658
822,,0.49995002150535583,
823,,,5.698950290679932
827,,0.25095000863075256,
828,,,
829,,,6.264000415802002
833,,-0.032999999821186066,
834,,,6.985050201416016
836,,,
838,,0.09300000220537186,
839,0.09245735330729855,,7.27500057220459
847,,0.5149500370025635,7.038000106811523
848,,0.8260500431060791,6.508950233459473
855,,0.843000054359436,6.025050163269043
857,,0.675000011920929,
858,0.13949364305952994,,5.671050071716309
862,,0.6439500451087952,
863,,,5.508000373840332
867,,0.7300500273704529,
868,,,5.5410003662109375
876,,0.8190000653266907,5.662950038909912
877,,,
878,0.09043728135358668,0.843000054359436,5.788050174713135
883,,0.7950000166893005,5.865000247955322
889,,0.8119500279426575,5.788050174713135
894,,0.7729500532150269,5.7109503746032715
895,,,
899,0.09253693601935473,0.7060500383377075,5.659050464630127
901,,,
903,,0.6010500192642212,5.695050239562988
908,,0.4759500324726105,5.75700044631958
913,,0.41895002126693726,5.82105016708374
921,0.1447770245670536,0.48600003123283386,5.94795036315918
924,,0.5650500059127808,
925,,,6.043950080871582
928,,0.6490500569343567,
929,,,6.127950191497803
933,,0.7540500164031982,6.208950519561768
942,0.07352140292955191,0.7180500626564026,6.223950386047363
949,,0.6630000472068787,6.187950134277344
950,,,
975,,0.6700500249862671,
976,,0.6820500493049622,6.1210503578186035
977,0.05616294511980128,,6.025050163269043
984,0.09964919229428694,0.7210500240325928,5.94795036315918
988,,0.7660500407218933,5.962950229644775
993,,0.39000001549720764,6.082050323486328
1001,0.07421994835739414,0.7159500122070312,5.938950061798096
1004,,1.111050009727478,5.854950428009033
1009,,1.0870500802993774,5.938950061798096
1010,,,
1013,,1.1010000705718994,
1014,,,6.055950164794922
1016,,,
1018,,1.152000069618225,6.1810503005981445
1019,0.043703682523672245,,
1023,,1.128000020980835,
1024,,,6.295950412750244
1029,,1.1320500373840332,
1030,,,6.424950122833252
1034,,1.2190500497817993,6.535050392150879
1038,,1.3069500923156738,6.681000232696533
1039,0.08251515777555297,,
1044,,1.4269500970840454,
1045,,,6.694950103759766
1052,,1.3720500469207764,
1053,,1.0290000438690186,6.89400053024292
1054,,,6.682950496673584
1059,0.11095963948922236,0.89805006980896,6.166050434112549
1064,,1.2280501127243042,
1065,,,6.087000370025635
1069,,1.3480501174926758,6.1020002365112305
1074,,1.1610000133514404,6.073050498962402
1076,,,
1079,,0.9889500737190247,
1080,0.08817384439946285,,6.12600040435791
1085,,0.9550500512123108,6.23805046081543
1089,,0.8710500597953796,
1090,,,6.279000282287598
1096,,0.8830500245094299,6.322050094604492
1099,0.06012408632126481,0.9379500150680542,6.379050254821777
1104,,0.9100500345230103,
1105,,,6.348000526428223
1109,,0.8520000576972961,
1110,,,6.193050384521484
1114,,0.8239500522613525,5.994000434875488
1119,,0.8239500522613525,
1120,0.050874878235180346,,5.922000408172607
1124,,0.7900500297546387,5.922000408172607
1129,,0.7920000553131104,5.968050479888916
1135,,0.8670000433921814,5.926950454711914
1137,,,
1139,,1.4080500602722168,5.401950359344482
1140,0.04560594497203305,,
1144,,1.0339500904083252,
1145,,,5.6419501304626465
1150,,0.7900500297546387,5.910000324249268
1154,,0.7639500498771667,
1155,,,6.051000118255615
1159,,0.6850500106811523,
1160,0.0548901125441209,,6.274050235748291
1164,,0.6769500374794006,
1165,,,6.360000133514404
1169,,0.6079500317573547,6.370050430297852
1176,,0.5749500393867493,6.352950096130371
1179,,0.661050021648407,6.252000331878662
1180,0.06357638872489382,,
1188,,0.7279500365257263,6.157050132751465
1189,,0.6180000305175781,
1190,,,6.229050159454346
1196,,0.534000039100647,6.274050235748291
1200,0.08460520944969936,0.598050057888031,
1201,,,6.21405029296875
1205,,0.5959500074386597,6.172950267791748
1211,,0.673050045967102,
1212,,,6.127950191497803
1214,,0.6799500584602356,
1215,,,6.054000377655029
1223,,0.687000036239624,6.055950164794922
1224,0.10301457004999244,,
1225,,0.700950026512146,
1226,,,6.097050189971924
1230,,0.7060500383377075,6.166050434112549
1235,,0.6919500231742859,6.276000499725342
1240,,0.6940500140190125,
1241,0.07880385028881863,,6.30495023727417
1245,,0.7330500483512878,6.23805046081543
1251,,0.742050051689148,6.145050525665283
1255,,0.7680000066757202,6.055950164794922
1256,,,
1260,0.03487160473792402,0.8380500674247742,6.022950172424316
1265,,0.8670000433921814,6.049050331115723
1270,,0.9150000214576721,6.1210503578186035
1275,,0.9580500721931458,
1276,,,6.166050434112549
1280,,0.9259500503540039,6.205050468444824
1281,0.04866702684011036,,
1285,,0.9340500235557556,
1286,,,6.178050518035889
1290,,0.9169500470161438,
1291,,,6.166050434112549
1295,,0.9649500250816345,
1296,,,6.142050266265869
1302,,1.051050066947937,
1303,0.0342896497812604,,5.944050312042236
1305,,1.1040000915527344,
1306,,,5.836050510406494
1310,,1.1010000705718994,5.908050060272217
1315,,0.5670000314712524,6.235950469970703
1320,,1.1179500818252563,
1321,0.09838218288936579,,6.240000247955322
1328,,1.2880500555038452,6.21405029296875
1331,,1.225950002670288,
1332,,,6.433950424194336
1342,,1.2570000886917114,6.478050231933594
1343,0.0849973474511172,,
1354,,1.429050087928772,6.157050132751465
1358,,1.5150001049041748,6.415050506591797
1366,,1.4170501232147217,
1367,0.13620130848961495,,6.472950458526611
1381,,1.2430500984191895,
1382,,,6.420000076293945
1383,0.18817642507078106,,
1385,,1.1179500818252563,
1386,,,6.468000411987305
1391,,1.1040000915527344,6.484950542449951
1396,,1.1400001049041748,
1398,,,6.552000522613525
1402,0.12101875567096117,1.0459500551223755,6.621000289916992
1406,,0.9550500512123108,
1407,,,6.547050476074219
1415,,0.8689500689506531,
1416,,,6.463050365447998
1417,,1.0009500980377197,6.21405029296875
1421,,2.770050048828125,3.9970502853393555
1422,0.08371583844593794,,
1427,,1.2190500497817993,4.758000373840332
1431,,0.742050051689148,
1432,,,5.464950084686279
1443,,0.9310500621795654,
1444,,0.8830500245094299,6.090000152587891
1445,0.06879313318792736,,
1446,,0.7780500650405884,6.925050258636475
1453,,1.1560500860214233,7.129050254821777
1454,,,
1457,,0.8329500555992126,7.074000358581543
1461,0.1361160823551862,0.5430000424385071,7.030950546264648
1466,,0.8190000653266907,7.105050563812256
1473,,0.9820500612258911,7.228950500488281
1477,,0.8710500597953796,
1478,,,7.189050197601318
1481,,0.9739500284194946,6.916050434112549
1482,0.16955067659516979,,
1486,,1.0530000925064087,6.564000129699707
1491,,0.9910500645637512,6.331050395965576
1497,,0.9580500721931458,6.3100504875183105
1501,,,
1503,,,
1504,0.05930402130292484,1.0270500183105469,6.430050373077393
1507,,1.068000078201294,
1508,,,6.549000263214111
1511,,1.0630500316619873,6.631050109863281
1516,,1.0410000085830688,
1517,,,6.640050411224365
1522,,1.0440000295639038,6.5590500831604
1523,0.14355933901977486,,
1526,,1.1130000352859497,
1527,,,6.5209503173828125
1532,,1.1590501070022583,6.552000522613525
1536,,1.1640000343322754,
1537,,,6.5590500831604
1541,0.10679993920859158,,
1542,,1.2330000400543213,6.588000297546387
1547,,1.321950078010559,6.544950485229492
1552,,1.4530500173568726,6.418050289154053
1558,,1.4580000638961792,
1559,,,6.31695032119751
1566,0.056372028266557336,1.4220000505447388,6.207000255584717
1572,,1.5130500793457031,6.22605037689209
1573,,,
1578,,1.5510001182556152,6.3670501708984375
1582,,1.5180001258850098,6.433950424194336
1583,0.12282758048096633,,
1587,,1.546950101852417,
1588,,,6.384000301361084
1592,,1.5510001182556152,6.343050479888916
1597,,1.5679501295089722,6.339000225067139
1604,0.09877448718457545,1.741050124168396,6.274050235748291
1607,,1.7569501399993896,6.319950103759766
1612,,1.50600004196167,6.244950294494629
1616,,,
1617,,1.4719500541687012,6.324000358581543
1622,0.11875364900303079,1.4959501028060913,6.505950450897217
1627,,1.5390000343322754,6.712050437927246
1632,,1.5829501152038574,
1633,,,6.87000036239624
1637,,1.4959501028060913,
1638,,,6.844050407409668
1642,,1.4650501012802124,6.76200008392334
1643,0.12549890851689827,,
1647,,1.5660001039505005,
1648,,,6.700050354003906
1652,,1.5660001039505005,6.648000240325928
1653,,,
1657,,1.50600004196167,
1658,,,6.645000457763672
1667,0.12200041486374483,1.50600004196167,6.750000476837158
1668,,,6.877050399780273
1672,,1.5390000343322754,6.970950126647949
1677,,,
1680,,1.64205002784729,
1681,,,6.979950428009033
1685,0.0876508780735614,1.659000039100647,7.098000526428223
1687,,2.0179500579833984,
1688,,,6.958950519561768
1692,,2.4090001583099365,
1693,,,6.76200008392334
1697,,2.7940502166748047,
1698,,,6.50100040435791
1704,0.13654036464726146,3.0739500522613525,6.250050067901611
1707,,3.1560001373291016,
1708,,,6.037050247192383
1712,,3.1120500564575195,
1713,,,5.860050201416016
1718,,2.9419500827789307,5.761950492858887
1723,0.17981319592168518,,
1724,,2.701050043106079,5.797950267791748
1730,,2.470950126647949,5.842950344085693
1733,,2.2549500465393066,5.995950222015381
1737,,1.8960001468658447,6.243000507354736
1742,0.10328912246179539,,
1743,,1.2739500999450684,6.8460001945495605
1748,,0.6370500326156616,7.480950355529785
1753,,0.30195000767707825,7.900050163269043
1758,,0.226950004696846,7.9960503578186035
1763,,0.3520500063896179,7.729950428009033
1764,0.24598599148519454,,
1768,,0.4210500121116638,7.4569501876831055
1773,,0.4909500181674957,7.324950218200684
1778,,0.6420000195503235,7.141050338745117
1783,0.3197460282819496,0.7330500483512878,6.934950351715088
1789,,0.7519500255584717,
1790,,,6.717000484466553
1794,,0.8160000443458557,6.51300048828125
1798,,0.8929500579833984,
1799,,,6.375000476837158
1806,0.2861413531281904,0.8790000677108765,6.256950378417969
1808,,0.8119500279426575,6.223950386047363
1809,,,
1813,,0.5910000205039978,6.208950519561768
1818,,0.3349500298500061,
1819,,,6.229050159454346
1823,0.19414710450441075,,
1824,,0.07395000010728836,6.243000507354736
1829,,-0.1789500117301941,6.21405029296875
1830,,,
1833,,-0.38700002431869507,
1834,,,6.133050441741943
1838,,-0.48795002698898315,
1839,,,5.998950481414795
1843,0.26220245641485945,,
1844,,-0.43995001912117004,5.82105016708374
1850,,-0.33705002069473267,5.565000057220459
1853,,-0.2740500271320343,
1854,,,5.512950420379639
1856,,,
1858,,-0.527999997138977,
1859,,,5.74500036239624
1867,,-0.7320000529289246,6.055950164794922
1868,0.4040882290926234,-0.8490000367164612,6.391050338745117
1873,,-0.9660000205039978,
1874,,,6.68595027923584
1878,,-1.078950047492981,6.87000036239624
1883,,-1.1509500741958618,
1884,0.43967803286057716,,7.023000240325928
1890,,-1.1959500312805176,7.114050388336182
1894,,-1.1599500179290771,7.191000461578369
1899,,-1.0600500106811523,7.225050449371338
1904,0.3550652949634972,-0.89205002784729,7.146000385284424
1905,,,
1909,,-0.6670500040054321,7.0159502029418945
1914,,-0.42795002460479736,6.826950550079346
1917,,,
1919,,-0.24300001561641693,6.600000381469727
1924,0.3375617615384982,-0.16005000472068787,6.39900016784668
1929,,-0.15495000779628754,6.279000282287598
1934,,-0.21900001168251038,6.252000331878662
1939,,-0.3130500018596649,6.307950496673584
1944,0.34303314065077717,-0.45600003004074097,6.379050254821777
1949,,-0.5689499974250793,6.439050197601318
1955,,-0.6720000505447388,6.469950199127197
1959,,-0.7800000309944153,6.516000270843506
1964,0.330743671709909,-0.8659500479698181,6.529950141906738
1969,,-0.8560500144958496,6.504000186920166
1974,,-0.8250000476837158,6.394050121307373
1977,,,
1981,,-0.7270500063896179,6.3100504875183105
1982,,,
1984,0.1853360031881008,-0.6529500484466553,6.21405029296875
1991,,-0.5790000557899475,6.175950527191162
1994,,-0.49995002150535583,
1995,,,6.243000507354736
1999,,-0.37005001306533813,6.300000190734863
2000,,,
2004,,-0.24105000495910645,6.352950096130371
2007,0.07786273446434351,,
2009,,-0.11400000751018524,
2010,,,6.358050346374512
2014,,0.031050002202391624,6.384000301361084
2019,,0.22005000710487366,6.375000476837158
2024,,0.3570000231266022,6.355050086975098
2026,0.1335721171303422,,
2033,,0.42600002884864807,6.32895040512085
2035,,0.4620000123977661,6.303000450134277
2038,,,
2039,,0.44505003094673157,6.2910003662109375
2040,,,
2044,,0.40905001759529114,
2045,0.224223269440298,,6.29295015335083
2049,,0.31800001859664917,6.319950103759766
2054,,0.21495001018047333,
2055,,,6.312000274658203
2060,,0.04500000178813934,6.31695032119751
2065,,-0.09495000541210175,6.307950496673584
2066,0.2470496097379797,,
2070,,-0.226950004696846,
2071,,,6.220950126647949
2075,,-0.35805001854896545,6.154050350189209
2079,,-0.42795002460479736,
2080,,,6.097050189971924
2085,0.20175166974682557,-0.4759500324726105,6.082050323486328
2091,,-0.5190000534057617,6.103950500488281
2095,,-0.5400000214576721,6.151950359344482
2100,,-0.5620500445365906,
2101,,,6.193050384521484
2103,,,
2104,,-0.5520000457763672,
2105,0.14543906130155532,,6.255000114440918
2110,,-0.5160000324249268,
2111,,,6.300000190734863
2115,,-0.4900500178337097,6.376950263977051
2119,,-0.4420500099658966,
2120,,,6.39900016784668
2125,0.06766098763526768,-0.4039500057697296,6.448950290679932
2130,,-0.3060000240802765,6.535050392150879
2136,,-0.1570500135421753,6.588000297546387
2139,,-0.034950003027915955,
2140,,,6.600000381469727
2145,0.059712946651476,0.06000000238418579,6.573000431060791
2150,,0.1770000010728836,6.568950176239014
2156,,0.19395001232624054,6.576000213623047
2160,,0.20805001258850098,
2161,,,6.5400004386901855
2166,0.06328680211306265,0.18405000865459442,6.504000186920166
2170,,0.1770000010728836,
2171,,,6.448950290679932
2175,,0.19095000624656677,
2176,,,6.424950122833252
2181,,0.18405000865459442,6.433950424194336
2186,0.03549569225766388,0.18195000290870667,6.472950458526611
2192,,0.14805001020431519,6.492000102996826
2195,,0.0880500078201294,
2196,,,6.5400004386901855
2200,,-0.006000000052154064,6.58305025100708
2201,,,
2205,0.10816148256150462,-0.13305000960826874,6.609000205993652
2206,,,
2213,,-0.19305001199245453,6.636000156402588
2215,,-0.22395001351833344,6.645000457763672
2220,,-0.26205000281333923,
2221,,,6.670950412750244
2226,,-0.33195000886917114,6.6910505294799805
2227,0.16321494088465485,,
2231,,-0.41805002093315125,6.727050304412842
2233,,,
2238,,-0.49500003457069397,6.784050464630127
2240,,-0.6019500494003296,6.832050323486328
2246,,-0.7099500298500061,6.909000396728516
2250,0.1680338533784043,,
2251,,-0.7579500079154968,6.991950511932373
2258,,-0.7680000066757202,7.069050312042236
2260,,-0.6649500131607056,
2261,,,7.099950313568115
2266,,-0.5230500102043152,
2267,,,7.086000442504883
2270,0.11402657740086716,,
2271,,-0.364950031042099,7.033050537109375
2277,,-0.25995001196861267,6.942000389099121
2278,,,
2279,,,
2281,,-0.17400000989437103,6.89400053024292
2286,,-0.16395001113414764,
2287,0.07702648205151585,,6.901050090789795
2292,,-0.16005000472068787,6.95205020904541
2297,,-0.15000000596046448,6.9559502601623535
2301,,-0.14505000412464142,6.966000556945801
2307,,-0.16905000805854797,6.990000247955322
2308,0.08084040778682901,,
2311,,-0.14505000412464142,7.011000156402588
2317,,-0.1189500093460083,7.023000240325928
2321,,-0.09195000678300858,
2322,,,7.030950546264648
2327,,-0.05700000375509262,7.021050453186035
2328,0.10677766971876797,,
2331,,-0.028050001710653305,7.04295015335083
2337,,-0.013050000183284283,
2338,,,7.062000274658203
2339,,,
2341,,0.019050000235438347,
2342,,,7.093050479888916
2347,,0.10305000841617584,7.1170501708984375
2348,0.09439306938007086,,
2351,,0.16005000472068787,7.135950565338135
2358,,0.22005000710487366,
2359,,,7.114050388336182
2361,,0.2989500164985657,
2362,,,7.105050563812256
2366,,0.33705002069473267,
2367,0.07311935933887381,,7.093050479888916
2371,,0.3060000240802765,7.078050136566162
2377,,0.2989500164985657,7.059000492095947
2381,,0.2460000067949295,7.05495023727417
2387,,0.18405000865459442,
2388,0.10294004782666044,,7.035000324249268
2391,,0.10005000233650208,6.9970502853393555
2397,,0.05295000225305557,6.946950435638428
2401,,-0.006000000052154064,
2402,,,6.925050258636475
2403,,,
2407,,-0.05400000140070915,
2408,0.12874332159508034,,6.886950492858887
2412,,-0.05205000191926956,
2413,,,6.865050315856934
2418,,-0.04200000315904617,6.877050399780273
2421,,-0.032999999821186066,
2422,,,6.898950099945068
2428,0.1378272351239578,-0.025050001218914986,6.931950092315674
2432,,0.0,6.943950176239014
2437,,0.040950000286102295,
2438,,,6.958950519561768
2441,,0.1080000028014183,
2442,,,6.901050090789795
2447,,0.20100000500679016,6.873000144958496
2448,0.17426765786059847,,
2452,,0.23205001652240753,6.832050323486328
2459,,0.2560500204563141,
2460,,,6.772050380706787
2462,,0.2970000207424164,6.753000259399414
2467,,0.3040500283241272,
2468,0.18425599840317228,,6.729000091552734
2472,,0.26295000314712524,6.6910505294799805
2478,,0.22500000894069672,
2479,,,6.676050186157227
2482,,0.12405000627040863,6.667050361633301
2487,,-0.006000000052154064,
2488,0.162192777068224,,6.676050186157227
2493,,-0.09000000357627869,6.6739501953125
2497,,-0.16395001113414764,
2498,,,6.676050186157227
2503,,-0.2530499994754791,6.670950412750244
2509,0.12869748637138917,-0.2959500253200531,6.6739501953125
2512,,-0.30300000309944153,6.66195011138916
2519,,-0.28905001282691956,6.6739501953125
2522,,-0.2740500271320343,
2523,,,6.68595027923584
2528,,-0.19500000774860382,
2529,0.11160395149368418,,6.700050354003906
2532,,-0.10395000129938126,6.688050270080566
2538,,-0.009000000543892384,6.681000232696533
2543,,0.12000000476837158,
2544,,,6.6499505043029785
2547,0.08055934586076992,,
2548,,0.23895001411437988,6.633000373840332
2552,,0.34005001187324524,6.59505033493042
2558,,0.40005001425743103,6.553950309753418
2562,,0.41895002126693726,
2563,,,6.51300048828125
2569,,0.3949500322341919,
2570,0.061756110351867115,,6.508950233459473
2572,,0.3330000042915344,
2573,,,6.532950401306152
2577,,0.25095000863075256,
2578,,,6.541950225830078
2583,,0.1870500147342682,6.5209503173828125
2587,,0.1360500007867813,
2588,,,6.50100040435791
2590,0.058881423009861815,,
2592,,0.08595000207424164,
2593,,,6.475050449371338
2598,,0.036000002175569534,6.430050373077393
2602,,0.021000001579523087,
2603,,,6.3670501708984375
2607,0.06392246400318857,0.036000002175569534,6.360000133514404
2612,,0.0,
2613,,,6.331050395965576
2617,,0.009000000543892384,
2618,,,6.288000106811523
2622,,0.06000000238418579,
2623,,,6.2910003662109375
2628,,0.12405000627040863,6.286050319671631
2629,0.08575000412314686,,
2633,,0.16305001080036163,6.295950412750244
2634,,,
2638,,0.21300001442432404,6.32895040512085
2643,,0.2370000183582306,6.352950096130371
2644,,,
2648,,0.2440500110387802,6.396000385284424
2649,,,
2652,,0.29205000400543213,
2653,,,6.445950508117676
2658,,0.3540000021457672,
2659,,,6.4609503746032715
2663,,0.4240500330924988,6.448950290679932
2669,,0.44805002212524414,6.424950122833252
2670,0.12100669592712195,,
2673,,0.41895002126693726,6.382050514221191
2679,,0.364050030708313,6.355050086975098
2683,,0.32805001735687256,6.363000392913818
2688,,0.2850000262260437,6.352950096130371
2690,0.12234623052681563,,
2694,,0.24900001287460327,6.375000476837158
2698,,0.23205001652240753,
2700,,,6.360000133514404
2703,,0.20295001566410065,6.355050086975098
2709,,0.18900001049041748,6.375000476837158
2712,0.08515694086424533,,
2713,,0.15105000138282776,6.358050346374512
2718,,0.14400000870227814,
2719,,,6.406050205230713
2723,,0.15105000138282776,6.444000244140625
2728,,0.19395001232624054,6.4609503746032715
2729,0.03506958730678238,,
2733,,0.20295001566410065,6.436950206756592
2734,,,
2741,,0.25095000863075256,6.409950256347656
2743,,0.28995001316070557,6.388950347900391
2748,,0.325950026512146,
2749,,,6.372000217437744
2750,0.020670515032809856,,
2753,,0.3829500079154968,6.406050205230713
2757,,,
2759,,0.4050000309944153,6.454050540924072
2763,,0.43995001912117004,6.472950458526611
2768,,0.48795002698898315,
2769,0.03846402817335378,,6.487050533294678
2773,,0.5460000038146973,6.475050449371338
2774,,,
2780,,0.6340500116348267,
2781,,,6.484950542449951
2784,,0.703950047492981,6.468000411987305
2788,,0.7639500498771667,
2789,,,6.454050540924072
2790,0.06029166764862606,,
2796,,0.8070000410079956,6.448950290679932
2801,,0.8449500203132629,
2803,,0.8350500464439392,6.420000076293945
2804,,,6.41295051574707
2809,,0.8520000576972961,
2810,0.0667642312845128,,6.430050373077393
2813,,0.8380500674247742,
2814,,,6.4270501136779785
2816,,,
2818,,0.8209500312805176,
2819,,,6.4609503746032715
2824,,0.7780500650405884,6.492000102996826
2829,,0.7300500273704529,6.50100040435791
2831,0.05736459710414406,,
2834,,0.7090500593185425,6.549000263214111
2839,,0.6970500349998474,6.573000431060791
2844,,0.6490500569343567,6.600000381469727
2849,,0.6460500359535217,6.625950336456299
2850,0.059546860784470385,,
2854,,0.6700500249862671,6.636000156402588
2860,,0.675000011920929,6.6910505294799805
2864,,0.6649500131607056,6.724050521850586
2870,0.07600470073335878,0.6150000095367432,6.777000427246094
2874,,0.5770500302314758,6.805950164794922
2876,,,
2879,,0.5719500184059143,6.77400016784668
2884,,0.5580000281333923,6.742950439453125
2889,,0.5359500050544739,
2890,0.07913502821191555,,6.712050437927246
2894,,0.5220000147819519,
2895,,,
2896,,,6.700050354003906
2899,,0.48600003123283386,
2900,,,6.6739501953125
2905,,0.4620000123977661,6.69795036315918
2910,,0.4069500267505646,6.724050521850586
2911,0.06366684343783027,,
2914,,0.3540000021457672,6.730950355529785
2922,,0.31800001859664917,6.765000343322754
2924,,0.3469500243663788,6.748050212860107
2929,,0.36900001764297485,6.727050304412842
2930,0.03685803216723363,,
2934,,0.4069500267505646,6.700050354003906
2935,,,
2937,,,
2940,,0.44805002212524414,6.643050193786621
2946,,0.4740000367164612,6.588000297546387
2950,,0.5269500017166138,
2951,0.053903343460949105,,6.59505033493042
2954,,0.6030000448226929,
2955,,,6.592050075531006
2959,,0.673050045967102,
2960,,,6.633000373840332
2966,,0.7710000276565552,6.670950412750244
2973,0.0852845594568443,0.8400000333786011,6.676050186157227
2974,,0.895050048828125,6.66195011138916
2981,,0.9190500378608704,6.640050411224365
2984,,0.9049500226974487,6.576000213623047
2991,,0.8910000324249268,6.5400004386901855
2992,0.07420352101938228,,
2998,,0.843000054359436,6.525000095367432
3001,,0.7800000309944153,6.541950225830078
3002,,,
3007,,0.6970500349998474,6.541950225830078
3011,,0.6220500469207764,6.580050468444824
3012,0.0414638662739636,,
3015,,0.5890500545501709,6.59505033493042
3021,,0.5719500184059143,6.600000381469727
3025,,0.5269500017166138,6.568950176239014
3026,,,
3031,,0.45705002546310425,6.556950092315674
3032,0.01665678202267434,,
3035,,0.37800002098083496,6.517950534820557
3041,,0.3330000042915344,6.523050308227539
3047,,0.2970000207424164,6.508950233459473
3051,0.032444714062354885,0.29205000400543213,6.523050308227539
3055,,0.26100000739097595,
3056,,,6.532950401306152
3061,,0.25095000863075256,6.573000431060791
3065,,0.2850000262260437,
3066,,,6.609000205993652
3071,,0.31095001101493835,6.6499505043029785
3073,0.04911101647409168,,
3075,,0.3540000021457672,
3076,,,6.6739501953125
3081,,0.40905001759529114,6.670950412750244
3085,,0.5239500403404236,6.657000541687012
3086,,,
3092,,0.6199500560760498,6.676050186157227
3093,0.06551865677877415,,
3096,,0.7279500365257263,6.658950328826904
3101,,0.8260500431060791,6.657000541687012
3106,,0.8640000224113464,6.658950328826904
3111,,0.8620500564575195,6.679050445556641
3123,0.09424003540145817,0.8329500555992126,
3124,,,6.688050270080566
3126,,0.7680000066757202,6.717000484466553
3135,,0.775950014591217,6.739050388336182
3136,0.09870491130958255,,
3141,,0.7399500608444214,6.837000370025635
3142,,,
3150,,0.7210500240325928,6.886950492858887
3151,,0.7330500483512878,6.925050258636475
3152,0.05805217879774233,,
3157,,0.7800000309944153,
3158,,,6.886950492858887
3161,,0.8500500321388245,6.850950241088867
3166,,0.9289500713348389,6.772050380706787
3173,0.03425737305938928,0.9619500637054443,6.721950531005859
3175,,0.9820500612258911,
3176,,,6.648000240325928
3177,,,
3181,,1.0170000791549683,6.577950477600098
3185,,0.9910500645637512,
3186,,,6.528000354766846
3191,0.08321745428977524,0.9289500713348389,6.525000095367432
3196,,0.8710500597953796,
3201,,,6.529950141906738
3202,,0.8040000200271606,
3206,,0.7729500532150269,6.544950485229492
3212,,0.7180500626564026,6.5400004386901855
3213,0.11524862266005056,,
3216,,0.6679500341415405,6.529950141906738
3221,,0.675000011920929,
3222,,,6.529950141906738
3226,,0.6199500560760498,6.529950141906738
3233,0.10182578549486,0.5959500074386597,6.508950233459473
3236,,0.5580000281333923,6.508950233459473
3237,,,
3242,,0.51705002784729,6.511050224304199
3246,,0.47895002365112305,
3251,0.04984463230536025,0.4330500066280365,6.490050315856934
3258,,0.4159500300884247,6.475050449371338
3261,,0.37095001339912415,6.490050315856934
3266,,0.3829500079154968,6.499050140380859
3271,,0.39705002307891846,6.466050148010254
3272,0.045086220542410585,,
3276,,0.39705002307891846,6.448950290679932
3284,,0.4020000100135803,6.384000301361084
3285,,,
3286,,0.4069500267505646,
3287,,,6.355050086975098
3299,0.05816514092656759,0.3850500285625458,6.3409504890441895
3302,,0.37800002098083496,6.375000476837158
3303,,,
3314,0.07386839830343239,0.35895001888275146,6.421950340270996
3325,,0.4020000100135803,
3326,,,6.528000354766846
3328,,0.5290500521659851,
3331,,0.5509500503540039,
3332,0.06978613141454457,,6.645000457763672
3336,,0.6250500082969666,6.655050277709961
3342,,0.661050021648407,6.676050186157227
3346,,0.7129500508308411,
3347,,,6.705000400543213
3352,0.05413924799994169,0.7470000386238098,
3353,,,6.679050445556641
3364,,0.7780500650405884,6.6739501953125
3380,,0.8590500354766846,
3381,0.05109797794890215,,6.664050102233887
3382,,0.895050048828125,6.676050186157227
3397,,0.8590500354766846,
3398,,0.8280000686645508,6.69795036315918
3399,0.04533217255875613,,
3412,,0.7680000066757202,6.664050102233887
3413,0.04053693680805776,,
3417,,,
3419,,0.6220500469207764,6.66195011138916
3428,,0.6010500192642212,6.664050102233887
3432,,0.6220500469207764,
3433,0.04519612108000194,,6.688050270080566
3437,,0.6940500140190125,6.715050220489502
3442,,0.7710000276565552,
3443,,,6.712050437927246
3447,,0.8550000190734863,6.739050388336182
3452,,0.9289500713348389,
3453,,,6.741000175476074
3454,0.06559957326739883,,
3467,,0.9940500259399414,6.748050212860107
3468,,,
3472,,1.1610000133514404,6.724050521850586
3473,0.08405791434114457,,
3476,,,
3477,,1.1640000343322754,6.742950439453125
3482,,1.1590501070022583,
3483,,,6.742950439453125
3487,,1.1179500818252563,
3488,,,6.717000484466553
3492,,1.055999994277954,
3493,0.08348527358590876,,6.7069501876831055
3497,,0.9739500284194946,
3498,,,6.688050270080566
3502,,0.895050048828125,
3503,,,6.682950496673584
3507,,0.8040000200271606,
3508,,,6.7069501876831055
3512,0.05760391939272817,,
3513,,0.7249500155448914,6.721950531005859
3518,,0.6940500140190125,
3519,,,6.715050220489502
3523,,0.6679500341415405,6.6910505294799805
3527,,0.6850500106811523,
3528,,,6.664050102233887
3534,0.03216065726428011,,
3535,,0.673050045967102,6.6190505027771
3537,,0.6820500493049622,
3538,,,6.585000514984131
3550,,0.6319500207901001,6.5400004386901855
3551,,,
3553,,0.5410500168800354,6.4609503746032715
3554,0.03107999682728957,,
3567,,0.49605002999305725,
3568,,0.5650500059127808,6.4800004959106445
3573,0.02132751629470807,0.5839500427246094,6.6739501953125
3580,,0.5670000314712524,6.717000484466553
3583,,0.534000039100647,6.750000476837158
3589,,0.5149500370025635,
3590,,,6.772050380706787
3593,0.030093754811635627,0.47895002365112305,
3594,,,6.76200008392334
3598,,0.4210500121116638,6.750000476837158
3601,,,
3603,,0.4120500087738037,6.790950298309326
3617,,0.4069500267505646,
3618,,,6.7860002517700195
3619,0.05531030476788335,0.38100001215934753,
3631,,0.34005001187324524,6.96405029296875
3646,0.08881925505888516,,
3647,,0.41895002126693726,6.942000389099121
3648,,0.7369500398635864,6.849000453948975
3649,,,
3663,,0.9070500135421753,
3664,,,6.8460001945495605
3665,0.09004302316092819,,
3668,,1.141950011253357,
3669,,,6.817950248718262
3680,0.07625174919549246,1.1610000133514404,6.798000335693359
3681,,,6.7819504737854
3684,,1.2229501008987427,6.77400016784668
3689,,1.207050085067749,6.730950355529785
3693,0.08997989787671462,,
3694,,1.1610000133514404,6.736050128936768
3699,,1.0579500198364258,
3700,,,6.739050388336182
3704,,0.9600000381469727,6.753000259399414
3709,,0.8350500464439392,6.742950439453125
3714,0.07895757379875301,0.7230000495910645,6.739050388336182
3721,,0.6250500082969666,6.721950531005859
3724,,0.5430000424385071,6.700050354003906
3729,,0.4740000367164612,6.6739501953125
3739,0.03441859097243585,0.4069500267505646,
3740,,,6.6910505294799805
3744,,0.364050030708313,6.760050296783447
3749,,0.41895002126693726,6.784050464630127
3754,,0.5070000290870667,6.757950305938721
3755,0.018718575274337804,,
3762,,0.6030000448226929,6.715050220489502
3765,,0.7090500593185425,
3766,,,6.717000484466553
3769,,0.7920000553131104,
3770,,,6.712050437927246
3774,,0.8260500431060791,
3775,0.03775541536874147,,6.715050220489502
3780,,0.8809500336647034,6.745950222015381
3781,,,
3785,,0.8760000467300415,6.784050464630127
3786,,,
3789,,0.8760000467300415,6.802950382232666
3790,,,
3794,,0.8520000576972961,
3795,,,
3796,0.07686759739121064,,6.813000202178955
3799,,0.8239500522613525,6.849000453948975
3804,,0.7560000419616699,
3805,,,6.8460001945495605
3809,,0.7249500155448914,6.853050231933594
3816,0.10871734618069817,0.687000036239624,
3817,,,6.841050148010254
3819,,0.687000036239624,6.841050148010254
3820,,,
3824,,0.7090500593185425,
3825,,,6.853050231933594
3829,,0.7470000386238098,
3830,,,6.865050315856934
3834,,0.7609500288963318,
3835,0.10827208363210718,,6.88200044631958
3839,,0.8020500540733337,
3840,,,6.844050407409668
3845,,0.8380500674247742,6.813000202178955
3849,,0.8620500564575195,
3850,,,6.727050304412842
3854,,0.9310500621795654,
3855,0.0766363319503097,,6.6910505294799805
3861,,1.0030500888824463,6.648000240325928
3864,,1.0270500183105469,
3865,,,6.6190505027771
3867,,,
3872,,1.01295006275177,6.604050159454346
3874,,0.970050036907196,
3875,0.03000350751898698,,6.625950336456299
3879,,0.8760000467300415,
3880,,,6.625950336456299
3890,,0.7609500288963318,6.621000289916992
3894,,0.6370500326156616,
3895,0.03513851811348479,,6.565950393676758
3897,,,
3900,,0.6079500317573547,6.573000431060791
3905,,0.5670000314712524,6.568950176239014
3913,,0.49995002150535583,6.609000205993652
3914,,,
3915,0.017768357836132672,0.4210500121116638,6.657000541687012
3916,,,
3920,,0.3829500079154968,6.679050445556641
3925,,0.3520500063896179,6.703050136566162
3933,,0.3829500079154968,6.705000400543213
3935,0.03582561883653951,0.4240500330924988,6.727050304412842
3940,,0.4620000123977661,6.750000476837158
3945,,0.5359500050544739,6.745950222015381
3950,,0.6150000095367432,
3951,,,6.754950523376465
3958,0.0330502183358132,0.6889500617980957,6.730950355529785
3960,,0.7639500498771667,6.721950531005859
3965,,0.8280000686645508,
3966,,,6.736050128936768
3971,,0.8710500597953796,6.736050128936768
3975,0.01850079093360752,0.9289500713348389,6.748050212860107
3980,,0.9240000247955322,6.7699503898620605
3987,,0.9150000214576721,
3991,,,6.7669501304626465
3992,,0.9030000567436218,
3995,,0.8880000710487366,
3996,0.015046455258422705,,6.7699503898620605
4000,,0.8790000677108765,
4001,,,6.741000175476074
4005,,0.8670000433921814,6.742950439453125
4013,,0.8209500312805176,6.76200008392334
4016,0.021399077373039505,0.7849500179290771,6.753000259399414
4017,,,
4020,,0.7519500255584717,
4021,,,6.757950305938721
4025,,0.7180500626564026,
4026,,,6.757950305938721
4031,,0.7110000252723694,6.754950523376465
4036,0.027785090129306505,0.7159500122070312,6.733950138092041
4041,,0.6820500493049622,6.715050220489502
4046,,0.6420000195503235,6.724050521850586
4051,,0.5839500427246094,6.742950439453125
4059,0.02312509378449651,0.5359500050544739,6.754950523376465
4073,,0.4930500090122223,
4074,,,6.808050155639648
4088,,0.5149500370025635,
4089,,0.6030000448226929,6.901050090789795
4090,0.02372091271648258,,
4091,,0.7279500365257263,6.931950092315674
4107,0.04114822400115369,0.7800000309944153,6.930000305175781
4127,,0.9049500226974487,6.909000396728516
4128,0.05633264288726633,,
4146,,0.814050018787384,
4147,0.05554239461564376,0.7330500483512878,6.838950157165527
4164,,0.5749500393867493,6.906000137329102
4165,0.04984484717677223,,
4166,,0.4720500111579895,6.931950092315674
4171,,0.45000001788139343,6.931950092315674
4172,,,
4176,0.04403041044158031,0.43800002336502075,
4177,,,6.928050518035889
4182,,0.43095001578330994,6.934950351715088
4187,,0.44805002212524414,6.922950267791748
4191,,0.49995002150535583,
4192,,,6.916050434112549
4200,,0.5290500521659851,6.906000137329102
4201,0.04103512243789667,,
4202,,0.5629500150680542,6.889050483703613
4207,,0.598050057888031,6.8680500984191895
4218,,0.6220500469207764,6.849000453948975
4219,0.014939425997934488,,
4222,,0.703950047492981,6.832050323486328
4227,,0.7350000143051147,6.832050323486328
4232,,0.7369500398635864,6.817950248718262
4237,,0.742050051689148,6.798000335693359
4239,0.01445467471822768,,
4242,,0.7560000419616699,
4243,,,6.825000286102295
4246,,0.8119500279426575,
4247,,,6.838950157165527
4252,,0.8830500245094299,6.880050182342529
4257,,0.9670500755310059,6.906000137329102
4258,0.013940872612913107,,
4262,,0.9910500645637512,6.919950485229492
4268,,1.009950041770935,6.909000396728516
4271,,0.9889500737190247,
4272,,,6.856050491333008
4277,0.02136611155240951,0.9619500637054443,
4278,,,6.837000370025635
4282,,0.9340500235557556,
4283,,,6.826950550079346
4287,,0.9070500135421753,
4288,,,6.808050155639648
4292,,0.89805006980896,6.8680500984191895
4301,0.020626545387814995,0.8449500203132629,6.913050174713135
4302,,0.8280000686645508,
4303,,,6.925050258636475
4307,,0.8040000200271606,6.930000305175781
4313,,0.7680000066757202,6.909000396728516
4317,0.032264717590951605,0.7800000309944153,6.832050323486328
4325,,0.7519500255584717,
4326,,,6.757950305938721
4327,,0.7639500498771667,
4328,,,6.679050445556641
4332,,0.7639500498771667,6.658950328826904
4337,,0.775950014591217,6.658950328826904
4344,0.04886882754454612,0.7680000066757202,6.657000541687012
4364,,0.7849500179290771,
4365,0.04659906022083901,0.8449500203132629,6.669000148773193
4368,,0.9169500470161438,6.68595027923584
4373,,0.9220500588417053,6.688050270080566
4387,,0.89805006980896,6.7099504470825195
4388,0.039047506554355314,0.8329500555992126,6.670950412750244
4394,,0.8190000653266907,6.6499505043029785
4408,,0.8260500431060791,
4409,,,6.625950336456299
4410,0.04733895876768873,,6.633000373840332
4429,,0.9000000357627869,
4430,0.07434050085440713,,6.624000549316406
4434,,0.8380500674247742,
4435,,,6.669000148773193
4437,,,
4444,0.0771426609146165,0.814050018787384,6.6910505294799805
4445,,,
4448,,0.7849500179290771,6.645000457763672
4452,,0.8190000653266907,
4453,,,6.5970001220703125
4461,0.07293492078776728,0.8089500665664673,6.547050476074219
4463,,0.8190000653266907,6.535050392150879
4468,,0.7560000419616699,6.529950141906738
4474,,0.6919500231742859,
4475,,,6.547050476074219
4478,0.05054196274529603,0.6630000472068787,6.588000297546387
4484,,0.6340500116348267,6.6190505027771
4485,,,
4488,,0.6079500317573547,6.6499505043029785
4493,,0.598050057888031,6.652050495147705
4494,,,
4499,,0.5910000205039978,
4500,,,6.640050411224365
4501,0.025643342717643965,,
4505,,,
4507,,0.6150000095367432,6.613950252532959
4508,,0.6150000095367432,6.5970001220703125
4514,,0.6199500560760498,
4515,,,6.60705041885376
4518,0.032276317450392805,0.6180000305175781,6.6190505027771
4526,,0.6250500082969666,
4527,,,6.658950328826904
4528,,0.6559500098228455,
4529,,,6.703050136566162
4533,,0.7129500508308411,6.69795036315918
4538,0.04982003041095262,,
4540,,0.703950047492981,6.729000091552734
4543,,0.7450500130653381,6.741000175476074
4549,,0.7780500650405884,6.76200008392334
4553,,0.8190000653266907,
4554,,,6.7860002517700195
4557,,,
4558,,0.856950044631958,
4559,0.06648778818112504,,6.829050540924072
4563,,0.8740500211715698,
4564,,,6.853050231933594
4569,,0.9000000357627869,6.898950099945068
4574,,0.8880000710487366,6.96405029296875
4578,,0.8880000710487366,
4579,,,
4580,0.08130849030502084,,7.006950378417969
4586,,0.8929500579833984,7.006950378417969
4588,,0.9070500135421753,
4589,,,6.98805046081543
4594,,0.9169500470161438,6.97605037689209
4599,0.07295554017505385,0.9220500588417053,6.954000473022461
4603,,0.9240000247955322,6.9370503425598145
4609,,0.9240000247955322,6.910950183868408
4613,,0.9120000600814819,
4614,,,6.9370503425598145
4617,,,
4618,,0.8929500579833984,
4619,0.06356415207440363,,6.919950485229492
4625,,0.8400000333786011,6.898950099945068
4629,,0.8089500665664673,6.874950408935547
4630,,,
4638,,0.7969500422477722,6.834000110626221
4639,0.044872663847042984,,6.813000202178955
4644,,0.7350000143051147,
4654,,0.7350000143051147,
4655,,,6.784050464630127
4659,,0.7129500508308411,6.87000036239624
4660,0.0354729681221844,,
4664,,0.7090500593185425,6.88200044631958
4670,,0.6990000605583191,6.886950492858887
4674,,0.7450500130653381,6.877050399780273
4675,,,
4677,,,
4679,0.03463407155492739,0.7879500389099121,6.885000228881836
4685,,0.8209500312805176,
4686,,,6.8680500984191895
4689,,0.8620500564575195,
4690,,,6.874950408935547
4694,,0.89805006980896,6.913050174713135
4700,0.03412827132676748,,
4701,,0.9150000214576721,6.922950267791748
4704,,0.9409500360488892,
4705,,,6.946950435638428
4710,,0.9670500755310059,6.922950267791748
4714,,0.9820500612258911,
4715,,,6.901050090789795
4719,0.040374254150041464,0.9960000514984131,6.88200044631958
4728,,0.970050036907196,
4729,,0.9529500603675842,6.873000144958496
4730,,,6.8680500984191895
4734,,0.8809500336647034,6.862950325012207
4737,,,
4739,,0.8260500431060791,6.865050315856934
4740,0.04095752324657878,,
4744,,0.7660500407218933,
4745,,,6.853050231933594
4750,,0.6889500617980957,
4751,,,6.849000453948975
4755,,0.6220500469207764,6.832050323486328
4756,,,
4759,,0.5670000314712524,6.802950382232666
4760,0.042431708830766544,,
4765,,0.49800002574920654,
4766,,,6.79395055770874
4770,,0.46695002913475037,6.805950164794922
4775,,0.39705002307891846,6.813000202178955
4779,,0.37605002522468567,
4780,0.05151545263891569,,6.813000202178955
4785,,0.33000001311302185,
4786,,,6.798000335693359
4790,,0.34905001521110535,6.76200008392334
4794,,0.3570000231266022,
4795,,,6.750000476837158
4800,0.05218500728493115,0.37605002522468567,6.736050128936768
4802,,,
4804,,0.4140000343322754,
4805,,,6.76200008392334
4813,,0.4810500144958496,6.7669501304626465
4815,,0.5530500411987305,6.820050239562988
4820,0.03503213105542147,0.6180000305175781,
4821,,,6.8610005378723145
4825,,0.6940500140190125,6.892050266265869
4826,,,
4830,,0.7729500532150269,
4831,,,6.913050174713135
4835,,0.8740500211715698,6.925050258636475
4840,0.031237183304412892,0.9430500268936157,6.909000396728516
4852,,1.0270500183105469,6.880050182342529
4867,0.04839365786242271,1.180050015449524,6.874950408935547
4870,,1.290000081062317,6.966000556945801
4883,,1.2739500999450684,6.973050117492676
4884,0.05364020632117354,,
4898,,1.2109500169754028,6.909000396728516
4900,0.04792313186594315,1.0579500198364258,6.765000343322754
4914,,0.9820500612258911,6.736050128936768
4933,,0.8740500211715698,6.736050128936768
4934,0.04525254698232011,,
4936,,0.8280000686645508,6.729000091552734
4940,,0.831000030040741,
4941,0.06542782994380665,,6.7069501876831055
4951,,0.8590500354766846,6.664050102233887
4956,,0.9820500612258911,
4957,,,6.657000541687012
4964,0.09104797582384745,1.0290000438690186,6.693000316619873
4966,,1.072950005531311,6.717000484466553
4970,,1.0609500408172607,
4971,,,6.700050354003906
4975,,0.9790500402450562,
4976,,,6.6739501953125
4977,,,
4982,0.08877223045349666,0.9649500250816345,6.667050361633301
4986,,0.9600000381469727,6.664050102233887
4992,,0.984000027179718,6.633000373840332
4996,,1.0080000162124634,6.628050327301025
5004,,0.9739500284194946,6.604050159454346
5005,0.05525220582825968,,
5006,,0.9379500150680542,6.580050468444824
5011,,0.8670000433921814,6.565950393676758
5016,,0.8089500665664673,6.564000129699707
5023,0.05295946068596139,0.7180500626564026,6.585000514984131
5027,,0.6340500116348267,
5028,,,6.577950477600098
5031,,0.5530500411987305,
5032,,,6.592050075531006
5036,,0.47895002365112305,6.609000205993652
5037,,,
5041,0.07900035234811077,0.4050000309944153,6.613950252532959
5046,,0.361050009727478,
5047,,,6.604050159454346
5051,,0.361050009727478,6.628050327301025
5056,,0.43800002336502075,
5057,,,6.621000289916992
5064,0.07739669957302986,0.5239500403404236,6.669000148773193
5066,,0.598050057888031,6.721950531005859
5067,,,
5071,,0.6420000195503235,
5072,,,6.765000343322754
5076,,0.7060500383377075,6.76200008392334
5077,,,
5081,0.04987603341268293,0.7489500641822815,6.808050155639648
5082,,,
5087,,0.7999500632286072,6.802950382232666
5091,,0.856950044631958,6.798000335693359
5096,,0.89805006980896,6.796050548553467
5103,0.04807377814130283,0.9220500588417053,6.784050464630127
5107,,0.9030000567436218,6.802950382232666
5116,,0.8670000433921814,6.790950298309326
5117,,0.8260500431060791,
5118,,,6.817950248718262
5122,0.05483548543613007,,
5123,,0.7660500407218933,
5124,,,6.87000036239624
5135,,0.7090500593185425,6.877050399780273
5147,0.05828591385607144,0.6340500116348267,6.87000036239624
5163,,0.6319500207901001,6.916050434112549
5164,0.05805066874455774,,
5167,,0.6490500569343567,
5168,,,6.9559502601623535
5172,,0.661050021648407,6.958950519561768
5187,,0.6940500140190125,6.95205020904541
5188,0.04532061485682205,,6.9559502601623535
5192,,0.843000054359436,6.946950435638428
5200,,0.8620500564575195,6.94005012512207
5203,0.05490635819891254,0.8830500245094299,6.916050434112549
5207,,0.9240000247955322,
5208,,,6.909000396728516
5212,,0.9169500470161438,6.874950408935547
5217,,0.9360000491142273,6.853050231933594
5222,,0.9150000214576721,
5223,0.05082167566056041,,6.834000110626221
5227,,0.8910000324249268,6.826950550079346
5232,,0.8350500464439392,
5233,,,6.805950164794922
5240,,0.775950014591217,
5241,,,6.801000118255615
5242,,0.673050045967102,6.796050548553467
5243,0.020684111721948378,,
5248,,0.5910000205039978,6.7819504737854
5252,,0.4810500144958496,
5253,,,6.802950382232666
5257,,0.39000001549720764,
5258,,,6.7699503898620605
5263,,0.33705002069473267,
5264,0.0336677547725318,,6.7699503898620605
5267,,0.2850000262260437,
5268,,,6.789000511169434
5272,,0.23895001411437988,
5273,,,6.817950248718262
5277,,,
5282,,0.2560500204563141,6.8680500984191895
5283,0.04888915539383121,,
5287,,0.34905001521110535,6.999000549316406
5288,,,
5292,,0.4159500300884247,
5293,,,7.006950378417969
5297,,0.505050003528595,
5298,,,7.009050369262695
5303,0.037291893587629646,0.6319500207901001,6.95205020904541
5307,,0.7590000629425049,
5308,,,6.94005012512207
5312,,0.8929500579833984,
5313,,,6.897000312805176
5318,,1.0320000648498535,6.897000312805176
5324,,1.152000069618225,
5328,,1.2469500303268433,
5329,,,6.94005012512207
5332,,1.3240500688552856,
5333,,,6.9559502601623535
5339,,,
5340,,1.3290001153945923,6.942000389099121
5343,0.04869370315847811,1.350000023841858,6.919950485229492
5344,,,
5348,,1.3380000591278076,6.856050491333008
5354,,1.2780001163482666,6.7860002517700195
5358,,1.2139500379562378,6.765000343322754
5365,0.048058061828714395,1.0770000219345093,6.753000259399414
5368,,0.9259500503540039,
5369,,,6.765000343322754
5376,,0.775950014591217,6.808050155639648
5378,,0.6559500098228455,
5379,,,6.844050407409668
5399,,0.5509500503540039,
5400,,0.4600500166416168,6.844050407409668
5401,0.010927586341414315,,
5403,,0.49605002999305725,
5404,0.025056780840973288,,6.760050296783447
5416,,0.559950053691864,
5417,,0.6060000061988831,6.778950214385986
5419,,0.6970500349998474,6.856050491333008
5441,0.04536686135699203,0.8020500540733337,
5442,,,6.874950408935547
5444,0.07854307487200976,1.2139500379562378,6.717000484466553
5448,,1.234950065612793,
5449,,,6.6910505294799805
5453,,1.207050085067749,
5454,,,6.724050521850586
5458,,,
5459,,1.1470500230789185,6.741000175476074
5463,,1.0489500761032104,
5464,,,6.742950439453125
5465,0.06578199703308854,,
5468,,0.9649500250816345,
5469,,,6.712050437927246
5486,,0.8550000190734863,6.694950103759766
5487,0.04678724439008704,,
5489,,0.5530500411987305,
5490,,,6.66195011138916
5494,,0.47895002365112305,
5495,,,6.669000148773193
5505,,0.4429500102996826,6.652050495147705
5506,0.08663687546100682,,
5510,,0.41895002126693726,6.600000381469727
5534,,0.45000001788139343,
5535,,,6.580050468444824
5536,0.07100854840496944,,
5539,,0.7279500365257263,6.729000091552734
5544,0.022290336026138637,,
5545,,0.7680000066757202,6.760050296783447
5557,,0.8020500540733337,
5558,,,6.730950355529785
5560,,0.8350500464439392,6.7069501876831055
5577,,0.8020500540733337,
5578,,,6.742950439453125
5579,0.02096787763509906,,
5581,,0.5460000038146973,6.88200044631958
5585,0.017757407986386208,,
5586,,0.51705002784729,6.901050090789795
5592,,0.49605002999305725,6.9559502601623535
5594,,0.5149500370025635,
5595,,,6.98805046081543
5599,,0.5359500050544739,
5600,,,7.021050453186035
5604,,0.5700000524520874,
5608,,,7.030950546264648
5609,0.06369940814813936,0.6030000448226929,7.047000408172607
5610,,,
5614,,0.6390000581741333,
5615,,,7.047000408172607
5619,,0.7110000252723694,
5620,,,6.979950428009033
5625,0.058742309035829825,0.7999500632286072,6.9370503425598145
5629,,0.8689500689506531,6.892050266265869
5630,,,
5637,,0.970050036907196,6.8580002784729
5650,,1.0440000295639038,6.834000110626221
5651,0.05654646594180765,,
5662,,1.165950059890747,6.844050407409668
5663,,,
5679,,1.152000069618225,6.850950241088867
5680,0.07681392021627718,0.9769500494003296,6.826950550079346
5686,0.0634407455924795,0.895050048828125,6.856050491333008
5695,,0.8070000410079956,6.885000228881836
5696,,0.7110000252723694,6.889050483703613
5700,,0.6300000548362732,
5701,,,6.874950408935547
5705,,0.5790000557899475,6.8460001945495605
5713,0.024791971978101075,0.5770500302314758,6.813000202178955
5715,,0.5839500427246094,
5716,,,6.808050155639648
5720,,0.5910000205039978,6.805950164794922
5725,0.015197622727590147,0.6390000581741333,6.829050540924072
5730,,0.6439500451087952,6.829050540924072
5731,,,
5735,,0.6649500131607056,6.8460001945495605
5740,,0.675000011920929,
5741,,,6.825000286102295
5745,0.011846693293172395,0.7060500383377075,6.808050155639648
5751,,0.7369500398635864,6.789000511169434
5756,,0.7330500483512878,6.820050239562988
5757,,,
5761,,0.7470000386238098,6.832050323486328
5765,,0.7350000143051147,6.865050315856934
5766,0.024830808927784307,,
5771,,0.6990000605583191,6.873000144958496
5776,,0.673050045967102,6.880050182342529
5781,,0.687000036239624,6.897000312805176
5786,0.011954765212158625,0.687000036239624,6.906000137329102
5791,,0.7060500383377075,
5792,,,6.8680500984191895
5795,,0.7300500273704529,6.8610005378723145
5801,,0.7489500641822815,
5802,,,6.844050407409668
5806,,0.7489500641822815,6.841050148010254
5809,0.0336994493254855,,
5811,,0.7639500498771667,
5812,,,6.856050491333008
5815,,0.7879500389099121,
5816,,,6.837000370025635
5817,,,
5821,,0.843000054359436,
5822,,,6.829050540924072
5826,0.036607564970338326,,
5827,,0.856950044631958,6.7860002517700195
5833,,0.8620500564575195,6.76200008392334
5836,,0.8670000433921814,
5837,,,6.729000091552734
5841,,0.8760000467300415,6.700050354003906
5846,0.017866013995761296,0.8239500522613525,6.700050354003906
5852,,0.7710000276565552,6.700050354003906
5856,,0.7350000143051147,6.748050212860107
5857,,,
5862,,0.675000011920929,6.796050548553467
5866,0.012908473356012543,0.5940000414848328,6.832050323486328
5871,,0.5220000147819519,6.873000144958496
5876,,0.49995002150535583,6.886950492858887
5881,,0.4600500166416168,6.892050266265869
5891,,,6.886950492858887
5892,0.013928885322941599,0.45000001788139343,6.916050434112549
5904,,0.41895002126693726,6.954000473022461
5906,0.03402794635899488,0.4120500087738037,7.047000408172607
5915,,0.4120500087738037,7.06695032119751
5916,,0.4429500102996826,7.071000099182129
5928,,0.49995002150535583,7.062000274658203
5929,0.04067843349299442,,
5931,,0.6630000472068787,
5932,,,7.030950546264648
5936,,0.7590000629425049,
5937,,,7.003950119018555
5943,,0.8400000333786011,6.970950126647949
5944,,,
5949,0.033492722216493825,0.9259500503540039,6.906000137329102
5950,,,
5951,,0.9739500284194946,
5952,,,6.8680500984191895
5957,,1.0290000438690186,6.8460001945495605
5961,,1.0320000648498535,
5962,,,6.808050155639648
5963,,,
5971,,,
5972,0.025848228787374698,1.0150500535964966,6.832050323486328
5974,,,
5976,,0.9289500713348389,6.820050239562988
5981,,0.8550000190734863,
5982,,,6.796050548553467
5987,0.012102878417972814,0.7830000519752502,6.77400016784668
5992,,0.7129500508308411,6.7699503898620605
5996,,0.6130500435829163,6.76200008392334
5998,,,
6002,,0.5509500503540039,6.778950214385986
6003,,,
6007,0.016723447471482647,,
6008,,0.4720500111579895,
6009,,,6.808050155639648
6012,,0.4069500267505646,
6013,,,6.8460001945495605
6016,,0.3540000021457672,
6017,,,6.880050182342529
6021,,0.3450000286102295,
6022,,,6.898950099945068
6027,,0.39705002307891846,
6028,,,
6032,,0.48795002698898315,6.790950298309326
6033,,,
6037,,0.6010500192642212,6.777000427246094
6044,,0.7110000252723694,6.754950523376465
6045,,,
6047,,0.8040000200271606,
6048,0.03413359224514114,,6.7699503898620605
6052,,0.8760000467300415,6.778950214385986
6057,,0.9259500503540039,
6058,,,6.837000370025635
6062,,0.9619500637054443,6.841050148010254
6068,0.07056289037988425,1.0080000162124634,6.877050399780273
6072,,1.0489500761032104,
6073,,,6.877050399780273
6077,,1.0840500593185425,6.886950492858887
6082,,1.0920000076293945,6.889050483703613
6087,0.08757961399963232,1.0960500240325928,6.904050350189209
6088,,,
6092,,1.0840500593185425,6.89400053024292
6097,,1.0320000648498535,
6098,,,6.901050090789795
6102,,1.009950041770935,
6103,,,6.880050182342529
6107,,0.9859500527381897,6.844050407409668
6108,0.0616513504432179,,
6113,,0.9820500612258911,6.825000286102295
6117,,0.9480000734329224,6.790950298309326
6122,,0.9070500135421753,
6123,,,6.7819504737854
6129,0.014184476155314903,0.8760000467300415,6.796050548553467
6132,,0.7920000553131104,
6133,,,6.814950466156006
6142,,0.7560000419616699,
6143,,,6.822000503540039
6147,0.041315169915690876,0.6940500140190125,6.79395055770874
6161,,0.6799500584602356,6.772050380706787
6174,,0.703950047492981,6.76200008392334
6175,0.05738806426553585,,
6194,,,
6195,0.045797856690952134,0.6460500359535217,6.822000503540039
6209,,0.7300500273704529,
6210,0.01744216336206816,,6.922950267791748
6228,,0.843000054359436,
6229,,0.8830500245094299,7.003950119018555
6230,0.019218597017770633,,
6243,,0.9289500713348389,6.967950344085693
6244,,,
6248,0.026248031277002253,,
6249,,0.8689500689506531,6.89400053024292
6253,,0.7609500288963318,6.880050182342529
6258,,0.742050051689148,6.909000396728516
6263,,0.7110000252723694,
6264,,,6.916050434112549
6270,0.0405466682827555,0.675000011920929,6.922950267791748
6273,,0.6460500359535217,
6274,,,6.9370503425598145
6278,,0.6769500374794006,6.925050258636475
6279,,,
6283,,0.6919500231742859,6.942000389099121
6288,,0.7519500255584717,6.928050518035889
6291,0.039423617456197865,,
6296,,0.775950014591217,6.913050174713135
6298,,0.8020500540733337,6.904050350189209
6300,,,
6303,,0.7830000519752502,6.886950492858887
6304,,,
6308,,0.8160000443458557,6.87000036239624
6309,0.02581951911662468,,
6314,,0.8119500279426575,6.885000228881836
6319,,0.8239500522613525,6.886950492858887
6320,,,
6323,,0.7950000166893005,
6324,,,6.89400053024292
6333,,0.7849500179290771,6.9370503425598145
6334,0.023316506915147573,,
6338,,0.7849500179290771,
6339,,,6.919950485229492
6343,,0.775950014591217,6.889050483703613
6344,,,
6348,,0.7369500398635864,
6349,,,6.856050491333008
6350,0.04542713975691475,,
6358,,0.687000036239624,6.862950325012207
6363,,0.6079500317573547,
6364,,,6.897000312805176
6371,0.06381799862678679,0.5460000038146973,6.913050174713135
6374,,0.49995002150535583,6.918000221252441
6378,,0.5149500370025635,
6379,,,6.897000312805176
6384,,0.5410500168800354,6.8580002784729
6389,,0.5860500335693359,
6390,0.06859418187841824,,6.849000453948975
6406,,0.6850500106811523,6.822000503540039
6409,,0.856950044631958,6.777000427246094
6410,0.03912449179445356,,
6420,,0.89805006980896,6.7669501304626465
6421,,,
6438,,0.9289500713348389,
6439,,0.9220500588417053,6.736050128936768
6440,0.025805241401769527,0.8860500454902649,6.77400016784668
6454,,0.8380500674247742,6.7860002517700195
6455,0.049664819889855265,,6.798000335693359
6459,,0.8550000190734863,6.765000343322754
6464,,0.8470500111579895,6.772050380706787
6473,0.056916457258699614,0.8040000200271606,6.778950214385986
6474,,0.7729500532150269,
6475,,,6.789000511169434
6477,,,
6480,,0.7110000252723694,6.798000335693359
6484,,0.6769500374794006,
6485,,,6.825000286102295
6491,0.04542668615990317,0.6649500131607056,6.826950550079346
6494,,0.6700500249862671,6.790950298309326
6499,,0.6940500140190125,6.753000259399414
6500,,,
6504,,0.7129500508308411,6.718950271606445
6509,0.028394224465654993,0.7210500240325928,
6510,,,6.712050437927246
6515,,0.742050051689148,
6516,,,6.69795036315918
6520,,0.7279500365257263,6.729000091552734
6525,,0.7279500365257263,6.724050521850586
6530,0.029378565503081773,0.7680000066757202,
6531,,,6.742950439453125
6535,,0.7920000553131104,
6536,,,6.7699503898620605
6537,,,
6540,,0.8280000686645508,6.733950138092041
6541,,,
6545,,0.8329500555992126,6.718950271606445
6550,0.02721755248801266,0.8620500564575195,6.68595027923584
6555,,0.8620500564575195,6.679050445556641
6560,,0.843000054359436,6.657000541687012
6565,,0.8470500111579895,
6566,,,6.682950496673584
6575,0.016853059668898857,0.814050018787384,
6576,,,
6577,,,6.724050521850586
6580,,0.7519500255584717,6.796050548553467
6585,,0.6970500349998474,
6586,,,6.814950466156006
6590,,0.6319500207901001,
6591,0.015298971197728427,,6.853050231933594
6597,,0.5670000314712524,
6598,,,6.885000228881836
6600,,0.5149500370025635,6.925050258636475
6605,,0.49995002150535583,6.954000473022461
6610,0.03720880664384322,0.45000001788139343,6.999000549316406
6615,,0.43605002760887146,7.039950370788574
6620,,0.43095001578330994,
6621,,,7.062000274658203
6625,,0.43605002760887146,7.063950538635254
6631,0.049560109968091806,0.46905001997947693,7.05495023727417
6635,,0.48795002698898315,
6636,,,7.027950286865234
6643,,0.5269500017166138,6.999000549316406
6645,,0.5550000071525574,6.982950210571289
6655,0.03748048911807256,0.5910000205039978,6.973050117492676
6669,,0.6420000195503235,6.928050518035889
6671,0.04786131234004319,0.6030000448226929,6.874950408935547
6676,,0.598050057888031,
6677,,,6.865050315856934
6683,,0.6180000305175781,6.874950408935547
6686,,0.6340500116348267,6.910950183868408
6697,0.0647542486621847,0.6420000195503235,6.910950183868408
6700,,0.6300000548362732,6.916050434112549
6710,,0.5940000414848328,
6711,0.06185096833660532,,6.925050258636475
6723,,0.6079500317573547,
6724,,,6.928050518035889
6725,,0.6540000438690186,
6726,,,7.047000408172607
6731,0.0459055083489543,0.7300500273704529,7.111950397491455
6736,,0.7540500164031982,7.153050422668457
6741,,0.8070000410079956,
6742,,,7.147950172424316
6746,,0.8790000677108765,
6747,,,7.131000518798828
6752,0.03531687026124623,0.9480000734329224,7.063950538635254
6756,,1.01295006275177,7.009050369262695
6761,,1.0800000429153442,
6762,,,7.027950286865234
6767,,1.141950011253357,7.062000274658203
6771,0.06216610815539966,1.207050085067749,7.141050338745117
6776,,1.2660000324249268,
6777,,,7.191000461578369
6781,,1.2739500999450684,
6782,,,7.195950508117676
6786,,1.258950114250183,7.1260504722595215
6787,,,
6791,0.08738504803406566,,
6792,,1.2499500513076782,7.002000331878662
6796,,1.2280501127243042,
6798,,,6.910950183868408
6801,,1.1640000343322754,
6802,,,6.822000503540039
6807,,1.0579500198364258,6.7669501304626465
6811,0.07762551376768607,,
6812,,0.8830500245094299,6.760050296783447
6816,,0.7540500164031982,6.7669501304626465
6824,,0.6199500560760498,6.829050540924072
6826,,0.5190000534057617,6.909000396728516
6831,,0.4720500111579895,
6832,0.05459171447209964,,7.003950119018555
6837,,0.4740000367164612,7.074000358581543
6841,,0.534000039100647,
6842,,,7.062000274658203
6847,,0.6180000305175781,6.9559502601623535
6851,0.04577434535329939,,
6852,,0.7470000386238098,6.8610005378723145
6857,,0.8590500354766846,6.757950305938721
6861,,0.9670500755310059,
6862,,,6.721950531005859
6867,,0.9979500770568848,
6868,,,6.7069501876831055
6871,0.04179040254853745,,
6872,,0.9820500612258911,6.742950439453125
6876,,0.9190500378608704,
6877,,,6.7699503898620605
6882,,0.8520000576972961,6.79395055770874
6886,,0.8209500312805176,
6887,,,6.801000118255615
6895,0.04173032205886718,0.8190000653266907,6.784050464630127
6897,,0.8119500279426575,6.730950355529785
6909,,0.7969500422477722,6.681000232696533
6910,,,
6911,,0.673050045967102,
6912,0.06438367164870856,,6.631050109863281
6917,,0.5670000314712524,6.628050327301025
6924,,0.4600500166416168,
6925,,,6.643050193786621
6927,,0.38100001215934753,6.68595027923584
6932,0.09511022444349311,0.34005001187324524,6.718950271606445
6937,,0.31800001859664917,6.760050296783447
6942,,0.3469500243663788,
6943,,,6.745950222015381
6947,,0.3850500285625458,6.754950523376465
6954,,0.46695002913475037,
6955,0.10219780584157007,,6.736050128936768
6957,,0.5890500545501709,6.742950439453125
6965,,0.6990000605583191,6.724050521850586
6968,,0.7780500650405884,6.76200008392334
6972,,0.8350500464439392,
6973,,,6.813000202178955
6974,0.04484435317002686,,
6982,,,
6983,,0.8640000224113464,6.838950157165527
6987,,0.8590500354766846,
6989,,,6.853050231933594
6992,0.03718238161730018,0.8470500111579895,6.8580002784729
6997,,0.8040000200271606,6.844050407409668
7002,,0.7639500498771667,
7003,,,6.89400053024292
7007,,0.7129500508308411,
7008,,,6.880050182342529
7012,,0.675000011920929,6.898950099945068
7013,0.009474791914045105,,
7018,,0.6199500560760498,6.89400053024292
7022,,0.5790000557899475,
7023,,,6.8680500984191895
7028,,0.5670000314712524,6.8460001945495605
7032,,0.547950029373169,6.810000419616699
7033,0.033701962392926374,,
7037,,0.5580000281333923,
7038,,,6.802950382232666
7043,,0.5580000281333923,6.814950466156006
7048,,0.5410500168800354,6.865050315856934
7054,0.03763735984677886,0.5749500393867493,6.885000228881836
7059,,0.6180000305175781,6.942000389099121
7062,,0.6799500584602356,
7063,,,6.982950210571289
7068,,0.7729500532150269,7.009050369262695
7072,,0.8520000576972961,
7073,0.03452948662303154,,6.991950511932373
7077,,,
7078,,0.9310500621795654,6.934950351715088
7084,,1.0009500980377197,6.901050090789795
7089,,1.0750499963760376,6.856050491333008
7092,0.059198982961343044,,
7093,,1.068000078201294,6.808050155639648
7098,,1.068000078201294,
7102,,,6.829050540924072
7103,,1.0200001001358032,6.856050491333008
7108,,0.9220500588417053,6.892050266265869
7113,0.0560603632362919,,
7114,,0.843000054359436,6.922950267791748
7117,,0.7470000386238098,
7118,,,6.925050258636475
7123,,0.703950047492981,6.889050483703613
7128,,0.598050057888031,6.849000453948975
7132,,0.5530500411987305,
7133,0.013652875590436537,,6.8680500984191895
7137,,,
7138,,0.48795002698898315,
7139,,,6.838950157165527
7143,,0.44805002212524414,6.850950241088867
7148,,0.43095001578330994,
7149,,,6.8460001945495605
7158,,,
7159,0.02960636461424793,0.42795002460479736,6.8580002784729
7175,,0.4930500090122223,6.820050239562988
7176,0.03233244688929005,,
7178,,0.7129500508308411,6.7099504470825195
7190,,0.7300500273704529,6.715050220489502
7193,,0.7999500632286072,
7194,0.032759147152526355,,6.790950298309326
7198,,0.8329500555992126,6.8460001945495605
7203,,,
7204,,0.8620500564575195,6.865050315856934
7218,0.034920223000194234,0.8830500245094299,6.904050350189209
7219,,0.9150000214576721,6.970950126647949
7223,,0.9480000734329224,
7224,,,7.023000240325928
7231,,0.9480000734329224,
7232,,,7.06695032119751
7245,0.01468238175935705,0.9529500603675842,7.090050220489502
7246,,,
7249,,1.1010000705718994,7.003950119018555
7255,0.03591014096641402,1.152000069618225,6.958950519561768
7257,,,
7259,,1.1749500036239624,6.885000228881836
7260,,,
7264,,1.1640000343322754,6.850950241088867
7269,,1.1440500020980835,6.829050540924072
7273,,1.0770000219345093,
7274,0.062315962333319964,,6.796050548553467
7279,,1.0170000791549683,6.757950305938721
7284,,0.9550500512123108,6.739050388336182
7289,,0.843000054359436,6.733950138092041
7294,,0.742050051689148,6.718950271606445
7295,0.0783266980524246,,
7299,,0.6340500116348267,6.739050388336182
7300,,,
7304,,0.5149500370025635,6.757950305938721
7309,,0.44505003094673157,
7310,,,6.777000427246094
7314,,0.4069500267505646,
7315,,,6.790950298309326
7316,0.05095251711102891,,
7320,,0.37800002098083496,6.8580002784729
7324,,0.364050030708313,6.916050434112549
7329,,0.3829500079154968,
7330,,,6.97605037689209
7334,0.025819059213846165,0.4020000100135803,7.014000415802002
7339,,0.4549500346183777,7.05495023727417
7344,,0.5509500503540039,7.018950462341309
7349,,0.6510000228881836,6.982950210571289
7354,0.028444407763455776,,
7355,,0.7540500164031982,6.913050174713135
7361,,0.8710500597953796,6.8580002784729
7364,,0.9120000600814819,6.826950550079346
7365,,,
7369,,0.9649500250816345,6.810000419616699
7374,,0.9580500721931458,
7375,0.008595979940385969,,
7377,,,
7379,,0.9409500360488892,
7380,,,6.856050491333008
7386,,0.9499500393867493,6.8580002784729
7387,,,
7390,,0.9310500621795654,
7391,,,6.850950241088867
7403,0.020727465009388553,0.8860500454902649,6.8610005378723145
7416,,0.7660500407218933,6.8680500984191895
7417,0.04181465891377126,,
7431,,0.6100500226020813,6.817950248718262
7448,0.06409443402448443,0.5359500050544739,6.808050155639648
7449,,0.4620000123977661,6.904050350189209
7461,,0.4620000123977661,6.942000389099121
7462,0.06385698032766118,,6.970950126647949
7477,,0.5269500017166138,
7478,0.046442826118682085,,7.0159502029418945
7493,,0.7350000143051147,7.002000331878662
7507,,1.0009500980377197,6.919950485229492
7508,0.04763624101503249,,
7510,,1.0960500240325928,6.844050407409668
7517,0.03750112297194626,1.1130000352859497,
7518,,,6.844050407409668
7520,,1.1640000343322754,
7521,,,6.825000286102295
7525,,1.165950059890747,
7526,,,6.753000259399414
7530,,1.1470500230789185,6.757950305938721
7536,0.03304822813300675,1.1010000705718994,6.741000175476074
7540,,1.0530000925064087,6.760050296783447
7545,,0.9499500393867493,
7546,,,6.777000427246094
7550,,0.856950044631958,6.784050464630127
7555,,0.7470000386238098,
7556,0.03780753214867325,,6.826950550079346
7557,,,
7564,,0.6940500140190125,
7565,,,6.838950157165527
7566,,0.6460500359535217,6.862950325012207
7571,,0.6580500602722168,6.889050483703613
7575,0.04457598183771944,,
7576,,0.6460500359535217,6.925050258636475
7580,,0.6540000438690186,
7581,,,6.9370503425598145
7585,,0.6850500106811523,6.95205020904541
7586,,,
7590,,0.7110000252723694,6.925050258636475
7591,,,
7595,0.032654250667823854,,
7596,,0.7369500398635864,6.909000396728516
7601,,0.7780500650405884,6.874950408935547
7606,,0.8380500674247742,6.856050491333008
7611,,0.8640000224113464,6.838950157165527
7616,0.03991928881416618,0.8880000710487366,6.849000453948975
7617,,,
7621,,0.9150000214576721,6.825000286102295
7625,,0.9360000491142273,
7626,,,6.838950157165527
7631,,0.9150000214576721,6.826950550079346
7636,,0.8740500211715698,6.820050239562988
7637,0.06294541785695469,,
7641,,0.8329500555992126,
7642,,,6.7860002517700195
7647,,0.7999500632286072,6.7699503898620605
7652,,0.7330500483512878,6.7699503898620605
7661,0.06268894053251177,0.6540000438690186,6.802950382232666
7662,,0.5550000071525574,
7675,,0.45705002546310425,6.925050258636475
7676,0.07174403202614749,0.3349500298500061,7.027950286865234
7682,,0.34905001521110535,
7683,,,7.009050369262695
7689,,0.35895001888275146,6.982950210571289
7691,,0.4050000309944153,6.98805046081543
7697,0.08456346008343617,0.4639500081539154,
7698,,,6.967950344085693
7701,,0.49995002150535583,7.006950378417969
7706,,0.6010500192642212,
7707,,,6.979950428009033
7714,,0.6580500602722168,7.0159502029418945
7717,0.07767658889308425,0.7300500273704529,7.011000156402588
7729,,0.8040000200271606,6.9970502853393555
7730,,,6.97605037689209
7744,,0.984000027179718,
7745,0.08973943833007138,1.0870500802993774,6.994950294494629
7746,,1.1350500583648682,6.918000221252441
7747,,,
7751,,1.1610000133514404,
7752,,,6.9370503425598145
7759,,1.1320500373840332,6.946950435638428
7760,0.07506972203879494,,
7775,,1.1130000352859497,6.978000164031982
7777,0.026868975017353636,0.9619500637054443,6.961050510406494
7782,,0.9120000600814819,6.934950351715088
7790,,0.8740500211715698,6.934950351715088
7792,,0.8620500564575195,6.931950092315674
7796,,0.8520000576972961,
7797,0.0559562618142798,,6.904050350189209
7802,,0.8590500354766846,6.918000221252441
7807,,0.8400000333786011,6.930000305175781
7813,,0.8470500111579895,6.916050434112549
7814,,,
7817,0.08348699709768936,0.8160000443458557,
7818,,,6.898950099945068
7822,,0.8070000410079956,6.909000396728516
7826,,0.8020500540733337,
7827,,,6.8680500984191895
7832,,0.7969500422477722,6.886950492858887
7838,0.09069042249113886,0.7800000309944153,6.909000396728516
7842,,0.7849500179290771,6.925050258636475
7847,,0.7609500288963318,
7848,,,6.904050350189209
7852,,0.7639500498771667,
7853,,,6.886950492858887
7856,,,
7857,0.09151234562407104,0.7680000066757202,6.862950325012207
7862,,0.7330500483512878,6.850950241088867
7867,,0.7560000419616699,6.849000453948975
7873,,0.7110000252723694,6.873000144958496
7877,,0.7090500593185425,6.88200044631958
7879,0.08981605807910356,,
7882,,0.687000036239624,6.897000312805176
7887,,0.6649500131607056,
7889,,,6.898950099945068
7892,,0.6700500249862671,6.901050090789795
7893,,,
7904,0.07881137814619536,0.6679500341415405,6.918000221252441
7919,0.044907277264721435,0.7159500122070312,6.922950267791748
7932,,0.8020500540733337,
7933,,0.8089500665664673,6.919950485229492
7948,0.05014256793573202,,
7949,,0.7249500155448914,6.898950099945068
7955,,0.598050057888031,6.856050491333008
7958,0.07349738801378697,0.5389500260353088,6.892050266265869
7962,,0.5239500403404236,
7964,,,
7965,,,6.916050434112549
7968,,0.4810500144958496,6.943950176239014
7972,,0.46695002913475037,
7973,,,6.967950344085693
7977,,,
7978,0.06845367262868725,0.51705002784729,6.970950126647949
7983,,0.5550000071525574,6.994950294494629
7987,,0.5839500427246094,
7988,,,7.045050144195557
7993,,0.5890500545501709,7.093050479888916
7998,0.04237221346886391,0.6130500435829163,
7999,,,7.107000350952148
8003,,0.6030000448226929,7.122000217437744
8008,,0.6030000448226929,7.153050422668457
8013,,0.6300000548362732,
8015,,,7.207950115203857
8018,0.038976716680196935,,
8020,,0.7159500122070312,7.248000144958496
8029,,0.8350500464439392,
8030,,,7.272000312805176
8033,,1.2280501127243042,7.119000434875488
8037,,,
8039,0.05506441811523364,1.446000099182129,6.994950294494629
8043,,1.6260000467300415,6.877050399780273
8049,,1.7479500770568848,
8050,,,6.765000343322754
8053,,1.8220500946044922,6.682950496673584
8059,0.10355401227048118,1.8220500946044922,6.693000316619873
8064,,1.7020500898361206,6.729000091552734
8070,,1.5390000343322754,
8071,,,6.778950214385986
8073,,1.3240500688552856,
8074,,,6.77400016784668
8079,0.08658042907953509,1.1370000839233398,6.7069501876831055
8083,,1.0080000162124634,
8084,,,6.613950252532959
8088,,0.8740500211715698,
8089,,,6.472950458526611
8095,,0.7110000252723694,6.41295051574707
8098,0.06480231483673415,,
8099,,0.5269500017166138,6.403050422668457
8101,,,
8104,,0.31800001859664917,6.408000469207764
8109,,0.18900001049041748,6.466050148010254
8114,,0.05700000375509262,6.475050449371338
8119,0.08485251666804781,-0.037050001323223114,6.5400004386901855
8124,,-0.15000000596046448,6.613950252532959
8129,,-0.27000001072883606,6.718950271606445
8134,,-0.3439500033855438,6.7699503898620605
8139,,-0.39705002307891846,6.820050239562988
8140,,,
8141,0.09409083557429686,,
8144,,-0.4420500099658966,
8145,,,6.801000118255615
8149,,-0.4420500099658966,
8150,,,6.778950214385986
8153,,-0.40095001459121704,
8154,,,6.772050380706787
8163,,-0.3820500075817108,
8164,0.11880208993644423,,6.784050464630127
8170,,-0.2939999997615814,6.8460001945495605
8178,,-0.22200001776218414,6.925050258636475
8179,0.13737561603751652,-0.15195000171661377,6.97605037689209
8184,,-0.06405000388622284,7.051950454711914
8189,,0.019050000235438347,
8190,,,7.114050388336182
8193,,0.11700000613927841,
8194,,,7.138050556182861
8201,0.16867438405915175,,
8202,,0.2350500077009201,7.174050331115723
8204,,0.34005001187324524,7.201050281524658
8209,,0.45705002546310425,
8210,,,7.213050365447998
8215,,0.5629500150680542,7.195950508117676
8218,,,
8219,0.1685382370861164,0.6820500493049622,
8220,,,7.174050331115723
8224,,0.7609500288963318,7.14300012588501
8229,,0.7710000276565552,7.15500020980835
8234,,0.7450500130653381,7.16895055770874
8239,,0.7090500593185425,
8240,0.1308753587440959,,7.201050281524658
8244,,0.6769500374794006,
8245,,,7.215000152587891
8260,0.14353345856731237,0.6559500098228455,7.2270002365112305
8274,,0.6370500326156616,7.23900032043457
8275,,,
8290,0.1663105924780776,0.6460500359535217,7.284000396728516
8295,,0.8209500312805176,7.267950534820557
8306,,0.8500500321388245,7.288950443267822
8307,0.16522806394532358,,
8310,,0.9030000567436218,
8311,,,7.311000347137451
8314,,0.9190500378608704,
8315,,,7.342050552368164
8322,,0.9379500150680542,7.360950469970703
8323,0.17494015266367094,,
8325,,1.0049999952316284,7.392000198364258
8330,,1.0750499963760376,7.4160003662109375
8335,,1.1610000133514404,7.411050319671631
8336,,,
8340,,1.2690000534057617,7.392000198364258
8342,0.17240213167050666,,
8345,,1.360050082206726,7.36305046081543
8350,,1.4820001125335693,
8351,,,7.3470001220703125
8356,,1.585050106048584,7.25100040435791
8359,,1.6930500268936157,
8360,0.16518217010609845,,7.191000461578369
8365,,1.7880001068115234,7.138050556182861
8370,,1.8510000705718994,
8371,,,7.074000358581543
8375,,1.9369500875473022,6.999000549316406
8381,,1.9900500774383545,
8382,0.16099915596528971,,6.88200044631958
8385,,1.9800001382827759,
8386,,,6.802950382232666
8390,,2.0059502124786377,
8391,,,6.724050521850586
8395,,1.9939501285552979,
8397,,,6.636000156402588
8403,,1.91100013256073,
8404,0.1779769981120737,,6.5400004386901855
8405,,1.7959500551223755,6.457950115203857
8418,,1.6500000953674316,6.372000217437744
8420,0.19579801295884874,1.446000099182129,6.195000171661377
8433,,1.3720500469207764,
8434,,,6.139950275421143
8435,,1.3050000667572021,
8436,,,5.958000183105469
8440,,1.207050085067749,
8441,0.21189566501620374,,6.003000259399414
8450,,1.0920000076293945,5.998950481414795
8451,,0.9720000624656677,6.0010504722595215
8455,,0.8590500354766846,5.994000434875488
8456,,,
8460,,0.6649500131607056,
8461,0.18073915519009212,,5.995950222015381
8465,,0.3930000066757202,
8466,,,5.9509501457214355
8471,,0.08400000631809235,
8472,,,5.980050086975098
8476,,-0.23595000803470612,6.106050491333008
8481,0.18701736601029417,-0.6310500502586365,
8482,,,6.111000061035156
8487,,-0.9379500150680542,6.268950462341309
8491,,-1.141050100326538,6.463050365447998
8496,,-1.1389501094818115,6.51300048828125
8501,0.2995786280565371,,
8502,,-0.8830500245094299,
8503,,,6.432000160217285
8506,,-0.6409500241279602,6.4270501136779785
8511,,-0.5190000534057617,
8512,,,6.496950149536133
8516,,-0.19305001199245453,
8517,,,6.375000476837158
8520,0.38118671142076244,,
8522,,0.226950004696846,6.103950500488281
8527,,0.703950047492981,5.764050483703613
8530,,1.0219500064849854,
8531,,,5.565000057220459
8543,0.40670362235567237,1.2109500169754028,5.356950283050537
8546,,1.1130000352859497,5.340000152587891
8557,,0.9409500360488892,5.404950141906738
8561,,0.48600003123283386,5.632050037384033
8562,0.4032743118321882,,
8566,,0.31095001101493835,5.668050289154053
8571,,0.2440500110387802,5.695050239562988
8578,,0.16005000472068787,5.742000102996826
8581,,0.013950000517070293,
8582,0.36578191422276274,,5.85705041885376
8586,,-0.15195000171661377,
8587,,,5.94795036315918
8592,,-0.31995001435279846,6.049050331115723
8596,,-0.41805002093315125,6.058950424194336
8597,,,
8601,,-0.48795002698898315,5.917050361633301
8602,0.27970240569220645,,
8606,,-0.5260500311851501,
8607,,,5.788050174713135
8611,,-0.5790000557899475,
8612,,,5.713950157165527
8616,,-0.6360000371932983,5.6610002517700195
8621,,-0.6480000019073486,
8622,,,5.665950298309326
8623,0.19322220917452093,,
8626,,-0.5670000314712524,5.557950496673584
8627,,,
8632,,-0.5040000081062317,5.589000225067139
8637,,-0.49500003457069397,5.599050045013428
8642,0.10263939898445812,-0.39900001883506775,5.652000427246094
8647,,-0.23100000619888306,
8648,,,5.635050296783447
8652,,-0.006000000052154064,5.592000484466553
8653,,,
8657,,0.2179500162601471,5.5219502449035645
8667,0.22523009733808122,0.43800002336502075,5.460000038146973
8673,,0.7230000495910645,
8674,,,5.4120001792907715
8684,,0.7950000166893005,
8685,0.2713509924929329,,5.440950393676758
8687,,0.8910000324249268,5.695050239562988
8692,,0.703950047492981,
8693,,,5.788050174713135
8697,,1.221000075340271,5.788050174713135
8701,,,
8704,0.29751176055534867,1.8240001201629639,5.683050155639648
8707,,2.0850000381469727,5.587050437927246
8712,,2.2290000915527344,5.509950160980225
8713,,,
8717,,2.0299501419067383,5.568000316619873
8718,,,
8722,,1.9339500665664673,
8723,0.360070323002936,,5.773950099945068
8727,,1.8580501079559326,5.874000072479248
8732,,1.8630000352859497,
8733,,,5.898000240325928
8737,,1.8889501094818115,5.82105016708374
8742,,1.8960001468658447,5.740050315856934
8747,,1.870050072669983,
8748,,,5.625000476837158
8754,,1.8870000839233398,5.48205041885376
8758,,1.8889501094818115,5.379000186920166
8759,,,
8762,,1.921950101852417,5.2920002937316895
8763,0.4212340678476354,,
8767,,1.8960001468658447,5.2420501708984375
8780,,1.91100013256073,5.224950313568115
8782,0.4436735812727194,2.056950092315674,
8783,,,5.2920002937316895
8798,,2.221950054168701,5.295000076293945
8799,,,
8803,0.44671813906093794,2.887050151824951,5.131950378417969
8807,,2.9760000705718994,
8808,,,5.067000389099121
8815,,2.9350502490997314,5.029050350189209
8817,,2.8350000381469727,
8818,,,5.041050434112549
8823,,2.7490501403808594,5.059950351715088
8824,0.40754639577908724,,
8833,,2.671950101852417,5.055000305175781
8834,,2.514000177383423,
8837,,2.2789502143859863,
8838,,,5.038950443267822
8843,0.311105621356629,2.1450002193450928,5.00700044631958
8854,,1.9150501489639282,4.942950248718262
8859,,1.5970500707626343,
8860,,,4.882950305938721
8863,0.12273967709006661,1.5589500665664673,4.711050033569336
8868,,1.4130001068115234,4.573950290679932
8881,,1.2619500160217285,
8882,,,4.51200008392334
8883,0.15205981007880662,1.0489500761032104,4.519050121307373
8888,,0.9940500259399414,4.6120500564575195
8893,,1.0369499921798706,4.666950225830078
8903,,1.2280501127243042,4.666950225830078
8904,,,4.641000270843506
8905,0.153837522178029,,
8908,,1.8220500946044922,4.639050006866455
8919,,2.095050096511841,4.6459503173828125
8946,,2.5069501399993896,
8947,,2.6740500926971436,4.711050033569336
8948,0.10425263423787587,,
8953,,2.619000196456909,
8954,,,4.773000240325928
8977,,2.1480000019073486,
8978,,1.9320000410079956,
8979,,1.64205002784729,5.058000087738037
8980,,,5.119950294494629
8981,0.18611922079379228,,
8985,,1.5970500707626343,
8986,,,5.0530500411987305
8987,0.23945903490748222,,
8989,,1.6110000610351562,5.002950191497803
8994,,1.590000033378601,4.957050323486328
9005,,1.5870001316070557,4.9360504150390625
9006,0.1847105553076945,,
9010,,1.5750000476837158,
9011,,,4.821000099182129
9030,,1.6500000953674316,
9031,0.025822251311297423,,4.77495002746582
9035,,1.9560000896453857,4.930950164794922
9058,,1.9369500875473022,
9059,,1.7530500888824463,4.975950241088867
9060,,,5.149050235748291
9061,0.07461127832990787,,
9064,,1.603950023651123,5.2420501708984375
9065,0.08569930401041498,,
9069,,1.8630000352859497,4.98105001449585
9070,,,
9083,,2.40405011177063,4.44195032119751
9084,0.11522575928112405,2.1070501804351807,4.792050361633301
9107,,1.908000111579895,
9108,,1.321950078010559,5.026950359344482
9109,0.12001297469578129,,
9110,,1.3020000457763672,5.239950180053711
9137,,1.3020000457763672,
9138,,1.2190500497817993,5.134050369262695
9139,0.11965780103848321,,
9141,,1.2109500169754028,4.344000339508057
9144,0.1665339177176216,1.152000069618225,4.521000385284424
9158,,0.9739500284194946,4.753950119018555
9160,,0.6010500192642212,
9161,,,5.236950397491455
9164,,0.4720500111579895,
9165,0.1764211979624057,,5.449950218200684
9186,,0.4159500300884247,5.5819501876831055
9187,,,5.659050464630127
9188,0.16568289680518744,,
9191,,0.775950014591217,5.545950412750244
9195,,0.9289500713348389,5.484000205993652
9209,,1.0770000219345093,5.410050392150879
9210,0.14088673870103346,1.3120501041412354,
9236,,1.3050000667572021,
9237,,,5.380950450897217
9238,0.1676918897406105,,
9241,,0.8280000686645508,5.565000057220459
9246,0.16394128181423528,0.8670000433921814,5.563050270080566
9264,,0.8550000190734863,5.48205041885376
9265,,,
9266,,0.8190000653266907,5.314050197601318
9267,0.11903685991417975,,
9270,,0.6510000228881836,5.287950038909912
9293,,0.43800002336502075,
9294,,0.2989500164985657,5.17995023727417
9295,0.12505118246070432,,
9296,,6.199050426483154,
9297,,,4.272000312805176
9316,,9.84000015258789,
9317,,,4.14300012588501
9318,0.3471221249728846,,
9320,,2.4280500411987305,
9321,,,7.693950176239014
9339,,1.281000018119812,
9340,0.35060424544366603,,7.174050331115723
9341,,0.4720500111579895,
9342,,,4.4760003089904785
9346,,0.8119500279426575,4.063950061798096
9347,0.1138346571609117,,
9375,,1.2109500169754028,
9376,,1.798050045967102,3.885000228881836
9377,,,3.9400501251220703
9378,0.21330279077317366,,
9380,,3.1650002002716064,
9381,,,4.423050403594971
9398,,2.9569501876831055,4.900050163269043
9399,0.3798814199858495,,
9402,,2.0779500007629395,6.006000518798828
9406,0.29056816775939387,1.5730500221252441,6.01800012588501
9419,,,6.276000499725342
9420,,1.281000018119812,
9421,,1.492050051689148,6.055950164794922
9426,,1.7790000438690186,5.63700008392334
9427,0.17152442725079978,,
9435,,2.2860000133514404,
9436,,,5.1060004234313965
9441,,3.38100004196167,
9442,,,4.660050392150879
9446,,3.5839502811431885,4.89300012588501
9447,0.1498412091474339,,
9462,,3.38100004196167,5.3020501136779785
9463,,,
9491,0.1990768637931963,2.482950210571289,
9492,,,6.384000301361084
9493,,,
9498,,2.0250000953674316,6.364950180053711
9516,0.3531830841163722,2.2770001888275146,6.468000411987305
9517,,,
9521,,1.7290500402450562,
9522,,,6.315000534057617
9543,,1.4050500392913818,
9544,,1.2780001163482666,6.073050498962402
9545,0.34876592750137997,,
9548,0.24658651819962352,1.3140000104904175,5.766000270843506
9564,,1.1779500246047974,
9565,,,5.836050510406494
9566,,0.39000001549720764,
9567,,,5.707050323486328
9568,0.1489166632190477,,
9572,,1.180050015449524,
9573,,,5.83305025100708
9586,,1.9030500650405884,5.635050296783447
9589,0.25236613407593583,1.615950107574463,4.903950214385986
9590,,,
9592,,1.5799500942230225,5.236950397491455
9608,,1.8000000715255737,
9609,0.27462445539195635,,5.340000152587891
9612,,2.40405011177063,
9613,,,5.383050441741943
9630,,2.3610000610351562,5.587050437927246
9631,0.16772269923914593,,
9633,,2.9860501289367676,4.828050136566162
9637,,3.241950035095215,
9638,,,4.459050178527832
9646,,3.20805025100708,4.35105037689209
9647,,3.0259501934051514,4.426050186157227
9648,0.22779700594149346,,
9652,,3.0430500507354736,
9653,,,4.633950233459473
9657,,,
9658,,2.820000171661377,4.753950119018555
9662,,2.5230000019073486,4.756050109863281
9667,0.2231392223302582,2.2770001888275146,4.736999988555908
9674,,2.0350501537323,
9675,,,
9676,,,4.6840500831604
9679,,,
9680,,1.870050072669983,4.569000244140625
9682,,1.7809500694274902,4.560000419616699
9696,,1.602000117301941,4.633950233459473
9697,0.20757622337116338,,
9699,,1.2739500999450684,4.897050380706787
9700,,,
9704,,1.2859500646591187,4.945050239562988
9707,,1.2829500436782837,
9708,0.15283538887796308,,4.9519500732421875
9714,,1.2780001163482666,5.005050182342529
9717,,,
9718,,1.2330000400543213,4.9360504150390625
9723,,1.4719500541687012,
9724,,,5.283000469207764
9730,,1.527000069618225,
9731,0.14558706749348835,,5.685000419616699
9733,,1.489050030708313,5.8909502029418945
9740,,1.429050087928772,5.686950206756592
9741,,,
9742,,1.603950023651123,
9743,,,5.326050281524658
9749,0.19485227722193507,1.870050072669983,
9750,,,5.083950042724609
9754,,2.0089499950408936,5.071950435638428
9755,,,
9758,,2.121000051498413,5.115000247955322
9763,,2.215050220489502,5.055000305175781
9768,,2.31000018119812,4.8949503898620605
9775,0.13975598788740307,2.2980000972747803,4.785000324249268
9777,,2.1910500526428223,
9778,,,4.7989501953125
9783,,1.9870500564575195,5.070000171661377
9788,,1.8270001411437988,
9789,,,5.323050022125244
9790,0.11121233557039059,,
9797,,1.8769501447677612,5.401950359344482
9801,,2.0209500789642334,5.368950366973877
9803,,2.155050039291382,5.254050254821777
9808,,2.272050142288208,
9809,0.25067218179439665,,5.131950378417969
9813,,2.454000234603882,
9814,,,4.999950408935547
9823,,2.5570502281188965,4.88100004196167
9824,,,
9828,0.16071286241056287,,
9830,,2.3149502277374268,4.89300012588501
9833,,2.121000051498413,
9834,,,4.88100004196167
9843,,2.004000186920166,4.854000091552734
9862,0.07051785270765303,1.8390001058578491,5.034000396728516
9863,,2.0209500789642334,5.107950210571289
9867,,,
9868,,2.1070501804351807,5.031000137329102
9869,0.1690763175063275,,
9873,,2.1570000648498535,
9874,,,5.047950267791748
9880,,2.233950138092041,
9881,,,5.074050426483154
9887,,2.3269500732421875,5.071950435638428
9889,0.12551409088587673,2.3940000534057617,5.083950042724609
9895,,2.3580000400543213,5.10105037689209
9898,,2.320050001144409,
9899,,,5.071950435638428
9901,,,
9903,,2.3299500942230225,
9904,,,5.026950359344482
9908,,2.370000123977661,
9909,,,5.023950099945068
9912,0.09804285770712272,,
9918,,2.320050001144409,
9919,,,5.035950183868408
9925,,2.0710501670837402,5.0119500160217285
9940,0.09550323338833079,2.0089499950408936,4.972050189971924
9957,,1.9489500522613525,
9958,,,4.890000343322754
9959,0.05981659009580498,,
9960,,2.0370001792907715,
9961,,,4.918950080871582
9964,,2.095050096511841,
9965,,,4.882950305938721
9972,,2.1739501953125,
9973,0.13562757469844877,,4.890000343322754
9974,,2.221950054168701,
9975,,,4.960050106048584
9979,,2.284050226211548,5.082000255584717
9984,,2.2890000343322754,5.260950088500977
9985,,,
9990,0.10490037834927238,,
9991,,2.265000104904175,5.37600040435791
9994,,2.1910500526428223,
9995,,,5.45805025100708
9999,,2.111999988555908,
10000,,,
10001,,,5.509950160980225
10005,,2.013000011444092,5.520000457763672
10006,,,
10009,0.0461397043978243,1.968000054359436,
10010,,,5.45805025100708
10017,,2.0350501537323,5.374050140380859
10019,,2.1090002059936523,5.290050029754639
10024,,2.1979501247406006,5.224950313568115
10034,,2.1670501232147217,
10035,0.07650987205491151,,5.230050086975098
10039,,2.083050012588501,5.28000020980835
10040,,,
10045,,2.0400002002716064,5.290050029754639
10049,0.07273537444586559,1.9969501495361328,
10050,,,5.295000076293945
10055,,2.0089499950408936,5.248950481414795
10059,,1.9990501403808594,
10060,,,5.2230000495910645
10064,,1.9939501285552979,
10065,,,5.221050262451172
10071,0.042815546261089465,2.0470499992370605,5.206050395965576
10075,,2.140050172805786,5.212950229644775
10076,,,
10082,,2.284050226211548,5.212950229644775
10084,,2.3460001945495605,
10085,,,5.271000385284424
10089,0.04802216557391067,,
10090,,2.193000078201294,5.56095027923584
10091,,,
10097,,2.092050075531006,5.496000289916992
10100,,2.0880000591278076,
10101,,,5.335050106048584
10105,,2.0179500579833984,5.170050144195557
10110,0.05536879058703562,1.9150501489639282,5.134050369262695
10115,,1.8270001411437988,
10116,,,5.17995023727417
10120,,1.7860500812530518,5.266050338745117
10125,,1.7670000791549683,
10126,,,5.404950141906738
10130,0.05886252864825102,1.7809500694274902,5.503050327301025
10135,,1.831950068473816,
10136,,,5.589000225067139
10141,,1.984950065612793,5.587050437927246
10142,,,
10145,,2.1640501022338867,5.509950160980225
10150,0.043585767423161524,,
10151,,2.241000175476074,
10152,,,5.48205041885376
10157,,2.056950092315674,5.766000270843506
10160,,2.0299501419067383,
10161,,,5.575050354003906
10165,,2.2579500675201416,5.287950038909912
10170,0.0933988970334799,2.293950080871582,5.038950443267822
10175,,2.2480502128601074,4.962000370025635
10180,,2.16195011138916,5.035950183868408
10185,,2.11395001411438,5.142000198364258
10186,,,
10197,0.056351730622495995,2.0970001220703125,5.185050010681152
10214,,,
10215,,2.0659501552581787,5.272950172424316
10216,0.016146699251840292,,
10217,,,
10222,,1.9369500875473022,5.52495002746582
10227,,1.9990501403808594,5.4120001792907715
10230,,2.0160000324249268,5.379000186920166
10231,0.03542822368483079,,
10235,,2.0179500579833984,5.428950309753418
10241,,2.0400002002716064,5.4910502433776855
10250,,2.0689501762390137,5.509950160980225
10251,0.0605475018068909,2.1070501804351807,5.476950168609619
10255,,2.083050012588501,
10256,,,5.4340500831604
10260,,2.0590500831604004,
10261,,,5.398050308227539
10265,,2.095050096511841,
10266,,,5.3520002365112305
10272,0.03994753890768668,2.0779500007629395,5.3520002365112305
10276,,2.013000011444092,5.347050189971924
10280,,1.9489500522613525,
10281,,,5.4120001792907715
10286,,1.9270501136779785,
10287,,,5.508000373840332
10291,0.06310474732416671,1.9009500741958618,5.596050262451172
10296,,1.908000111579895,
10297,,,5.692050457000732
10301,,1.91100013256073,5.758950233459473
10306,,1.9320000410079956,5.719050407409668
10311,,1.963050127029419,
10312,0.05334045777164746,,5.659050464630127
10316,,1.9300501346588135,5.640000343322754
10321,,1.894050121307373,
10322,,,5.575050354003906
10326,,1.924950122833252,
10327,,,5.485950469970703
10332,0.05215404324994349,1.951050043106079,5.476950168609619
10336,,1.9699500799179077,5.500950336456299
10337,,,
10345,,2.0059502124786377,
10346,,2.044950008392334,5.484000205993652
10360,,2.1090002059936523,5.392950057983398
10361,0.058835852654962856,,
10371,,2.143050193786621,
10372,0.01986780325908153,2.180999994277954,5.401950359344482
10385,,2.26200008392334,
10386,,2.3989500999450684,5.328000068664551
10391,,2.502000093460083,
10392,,,5.338050365447998
10393,0.07092230003785932,,
10399,,2.571000099182129,5.332950115203857
10404,,2.6890501976013184,
10405,,,5.401950359344482
10406,,2.7649500370025635,5.467050075531006
10411,,2.8399500846862793,
10412,0.08935371772426236,,5.422050476074219
10417,,2.7990000247955322,5.437950134277344
10421,,2.751000165939331,5.455050468444824
10427,,2.7580502033233643,5.448000431060791
10428,,,
10431,,2.763000249862671,
10432,0.09605734821837007,,5.428950309753418
10437,,2.6929500102996826,5.440950393676758
10438,,,
10442,,2.5830001831054688,5.500950336456299
10446,,2.509050130844116,
10453,0.13432886695723467,2.5069501399993896,5.500950336456299
10456,,2.5000500679016113,
10457,,,5.407050132751465
10461,,2.4660000801086426,
10462,,,5.401950359344482
10468,,2.422950029373169,
10469,,,5.374050140380859
10471,,2.350950002670288,
10472,0.080489156274406,,5.401950359344482
10477,,2.242950201034546,5.467050075531006
10478,,,
10482,,2.1910500526428223,5.52495002746582
10487,,2.203050136566162,
10488,,,5.604000091552734
10492,,2.2960500717163086,5.644050121307373
10493,0.0873640178851484,,
10497,,2.434950113296509,
10498,,,5.659050464630127
10501,,,
10502,,2.5350000858306885,5.680050373077393
10509,,2.650050163269043,5.659050464630127
10512,0.06400525294503152,2.7559502124786377,5.604000091552734
10517,,2.848950147628784,5.4910502433776855
10522,,2.908950090408325,5.379000186920166
10527,,2.920950174331665,5.343000411987305
10528,,,
10533,,2.848950147628784,
10534,0.10686005715845352,,5.401950359344482
10537,,2.740950107574463,
10538,,,5.485950469970703
10542,,2.63100004196167,5.479050159454346
10547,,2.5350000858306885,5.419050216674805
10553,0.045442669519136426,2.4880502223968506,5.428950309753418
10556,,,
10557,,2.4559500217437744,5.467050075531006
10562,,2.382000207901001,5.496000289916992
10567,,2.362950086593628,
10568,,,5.497950077056885
10576,0.05289573178507565,2.4250500202178955,5.508000373840332
10578,,2.5000500679016113,5.527050495147705
10582,,2.5500001907348633,5.529000282287598
10588,,2.6430001258850098,
10589,,,5.488950252532959
10593,,2.722050189971924,5.44605016708374
10595,0.03880922341951821,,
10597,,2.8159501552581787,
10598,,,5.404950141906738
10605,,2.8540501594543457,5.416950225830078
10607,,2.820000171661377,
10609,,,5.464950084686279
10614,0.02990120029069618,,
10615,,2.7990000247955322,5.520000457763672
10619,,2.7769501209259033,5.527050495147705
10623,,2.7529501914978027,5.5219502449035645
10628,,2.739000082015991,5.505000114440918
10633,,2.7559502124786377,5.476950168609619
10634,0.07794420064144798,,
10638,,2.763000249862671,5.509950160980225
10643,,2.820000171661377,5.4910502433776855
10648,,2.920950174331665,5.380950450897217
10653,,3.100050210952759,5.304000377655029
10654,0.07196550618425719,,
10659,,3.2470500469207764,5.260950088500977
10663,,3.3040502071380615,5.287950038909912
10668,,3.249000072479248,5.356950283050537
10676,0.07395045197607002,3.189000129699707,5.400000095367432
10678,,3.117000102996826,5.379000186920166
10683,,3.100050210952759,5.283000469207764
10688,,2.977950096130371,
10689,,,5.28000020980835
10693,,2.8320000171661377,
10694,0.046303388133256816,,5.383050441741943
10698,,2.7490501403808594,
10699,,,5.484000205993652
10707,,2.7769501209259033,5.503050327301025
10708,,2.808000087738037,
10709,,,5.460000038146973
10713,0.13537729054562309,,
10714,,2.7169501781463623,5.437950134277344
10721,,2.559000015258789,
10722,,,5.443050384521484
10723,,2.45205020904541,5.517000198364258
10728,,2.461050033569336,5.563050270080566
10733,0.10137066237974623,2.581050157546997,5.529000282287598
10738,,2.739000082015991,5.515050411224365
10744,,2.8780500888824463,
10745,,,5.515050411224365
10749,,2.959050178527832,5.563050270080566
10753,0.023725606475149163,,
10754,,2.9860501289367676,5.604000091552734
10760,,2.9539501667022705,5.635050296783447
10763,,2.9040000438690186,
10764,,,5.63700008392334
10768,,2.8440001010894775,
10769,,,5.611050128936768
10773,,2.842050075531006,
10774,0.018861474273911775,,5.575050354003906
10778,,2.8849501609802246,5.563050270080566
10779,,,
10785,,2.92995023727417,5.503050327301025
10791,,2.908950090408325,5.428950309753418
10793,0.030896814524625726,,
10794,,2.619000196456909,5.436000347137451
10799,,2.332050085067749,
10800,,,5.587050437927246
10804,,2.16195011138916,5.782950401306152
10808,,2.0400002002716064,
10809,,,5.838000297546387
10814,,2.1979501247406006,5.728050231933594
10815,0.09227288886183213,,
10819,,1.9440001249313354,5.692050457000732
10824,,2.203050136566162,5.683050155639648
10829,,2.1859500408172607,5.635050296783447
10834,0.12095771347092502,2.0370001792907715,5.652000427246094
10838,,1.9609501361846924,
10839,,,5.734950065612793
10844,,2.0020501613616943,
10845,,,5.758950233459473
10849,,2.0779500007629395,
10850,,,5.716050148010254
10854,0.11451539324714735,2.121000051498413,5.673000335693359
10857,,,
10862,,2.242950201034546,5.662950038909912
10863,,,
10864,,2.325000047683716,5.623050212860107
10874,0.07499319010852296,2.293950080871582,5.629950046539307
10887,,2.2669501304626465,5.539050102233887
10888,,,
10889,,2.3770501613616943,5.5489501953125
10901,0.06989186351453973,2.3010001182556152,5.512950420379639
10904,,2.260050058364868,5.644050121307373
10909,,2.3490002155303955,5.758950233459473
10914,,2.4130501747131348,
10915,0.0782190382760116,,5.848050117492676
10916,,,
10919,,2.4660000801086426,5.9239501953125
10924,,2.55495023727417,
10925,,,5.914950370788574
10929,,2.6430001258850098,
10930,,,5.781000137329102
10935,0.06234300161811212,2.6260502338409424,5.716050148010254
10939,,2.5830001831054688,
10940,,,5.697000503540039
10948,,2.4400501251220703,
10949,,,5.709000110626221
10951,,2.2669501304626465,5.788050174713135
10960,,2.1720001697540283,
10961,0.0729503284252492,2.1600000858306885,5.848050117492676
10964,,2.143050193786621,
10965,,,5.920050144195557
10969,,2.121000051498413,5.941050052642822
10970,,,
10974,,2.0899500846862793,5.908050060272217
10975,0.04225306096782732,,
10977,,,
10979,,2.0179500579833984,
10980,,,5.877000331878662
10984,,1.9369500875473022,5.884050369262695
10989,,1.8390001058578491,
10990,,,5.9239501953125
10994,,1.6690500974655151,6.106050491333008
10995,0.04872085709661246,,
10999,,1.812000036239624,
11000,,,6.154050350189209
11004,,1.6879501342773438,
11005,,,6.279000282287598
11009,,1.738050103187561,
11010,,,6.274050235748291
11015,0.10545695203562033,1.831950068473816,6.193050384521484
11020,,1.8840000629425049,
11021,,,6.133050441741943
11024,,1.9180500507354736,
11025,,,6.127950191497803
11030,,1.9609501361846924,6.183000087738037
11036,0.12466835192837068,1.9699500799179077,6.151950359344482
11040,,2.0020501613616943,6.054000377655029
11045,,2.1040501594543457,5.8909502029418945
11050,,2.182950019836426,5.785950183868408
11055,0.10132022534226295,2.212050199508667,5.683050155639648
11061,,2.1859500408172607,5.640000343322754
11065,,2.1160500049591064,5.5819501876831055
11070,,2.041949987411499,5.484000205993652
11075,0.09632741926295144,1.9780501127243042,5.331000328063965
11080,,1.852950096130371,5.227950096130371
11085,,1.7929500341415405,5.17995023727417
11090,,1.6260000467300415,5.2420501708984375
11095,0.10441565607655172,1.4680501222610474,5.45805025100708
11100,,1.3669500350952148,5.731050491333008
11102,,,
11105,,1.492050051689148,5.829000473022461
11110,,1.7880001068115234,5.683050155639648
11115,0.08300677186650235,,
11116,,2.1040501594543457,5.47005033493042
11125,,2.305950164794922,5.26800012588501
11130,,2.464050054550171,5.127000331878662
11137,0.07825184895270357,2.434950113296509,5.173050403594971
11140,,2.3610000610351562,5.25600004196167
11149,,2.245950222015381,5.347050189971924
11151,,2.11395001411438,5.422050476074219
11155,,2.0089499950408936,5.464950084686279
11156,0.13153843691353626,,
11167,,1.9369500875473022,5.479050159454346
11175,,1.7670000791549683,5.461950302124023
11176,,1.7809500694274902,
11177,0.17278631239546874,,5.485950469970703
11182,,1.8169500827789307,5.533950328826904
11186,,1.8769501447677612,
11187,,,5.575050354003906
11191,,1.9300501346588135,
11192,,,5.587050437927246
11197,,1.9939501285552979,5.589000225067139
11199,0.16478981292717232,,
11203,,2.056950092315674,5.551050186157227
11215,,2.1979501247406006,
11216,,,5.529000282287598
11225,0.11040480350547731,2.4660000801086426,5.443050384521484
11232,,2.571000099182129,5.347050189971924
11237,0.07934053844369203,2.490000009536743,5.248950481414795
11242,,2.410950183868408,5.211000442504883
11246,,2.3650500774383545,5.151000022888184
11247,,,
11251,,2.31000018119812,5.151000022888184
11256,,2.2669501304626465,
11257,0.10572689747685066,,5.1820502281188965
11262,,2.2170000076293945,5.271000385284424
11266,,2.215050220489502,
11267,,,5.343000411987305
11271,,2.2890000343322754,5.36400032043457
11276,,2.3989500999450684,5.340000152587891
11277,0.06620556998087745,,
11284,,2.5309500694274902,
11285,,,5.260950088500977
11286,,2.622000217437744,5.197050094604492
11291,,2.6430001258850098,
11292,,,5.070000171661377
11296,,2.6050500869750977,
11297,0.1366582941176765,,4.978950023651123
11301,,2.4850502014160156,
11302,,,4.960050106048584
11306,,2.3370001316070557,
11307,,,5.010000228881836
11316,,2.155050039291382,
11317,,2.0250000953674316,5.118000030517578
11319,0.15601062916611327,,
11321,,1.966050148010254,
11322,,,5.323050022125244
11328,,1.9609501361846924,5.424000263214111
11331,,1.9729501008987427,
11332,,,5.493000030517578
11346,,2.0020501613616943,
11347,,,5.605950355529785
11348,0.1548950214552836,,
11349,,2.013000011444092,
11351,,2.0299501419067383,
11354,,,5.683050155639648
11371,,2.0590500831604004,
11372,,,5.653950214385986
11373,0.03860473934369584,2.0089499950408936,
11377,0.08063830433163342,1.968000054359436,5.644050121307373
11392,,1.9440001249313354,
11393,,1.8510000705718994,5.74500036239624
11394,,,
11395,,1.7170500755310059,5.793000221252441
11397,,1.7790000438690186,5.613000392913818
11398,,,
11407,,1.8720000982284546,
11408,0.09397657651407218,2.0209500789642334,5.368950366973877
11420,,2.133000135421753,
11421,,2.1790502071380615,4.912050247192383
11422,0.18099554427139555,2.1480000019073486,4.648050308227539
11423,,,
11427,,2.1280500888824463,
11428,,,4.651050090789795
11432,,2.0209500789642334,
11433,,,4.744050025939941
11437,,1.810050129890442,
11438,0.2571614889152927,,4.833000183105469
11442,,1.546950101852417,4.846950054168701
11447,,1.543950080871582,4.857000350952148
11448,,,
11452,,2.2789502143859863,4.761000156402588
11456,,,
11457,,1.6849501132965088,4.63200044631958
11458,0.2672098228543542,,
11462,,0.6180000305175781,4.555050373077393
11463,,,
11471,,0.16305001080036163,
11472,,,5.455050468444824
11473,,1.055999994277954,5.497950077056885
11479,,1.683000087738037,5.211000442504883
11480,0.1576542575547711,,
11486,,1.9870500564575195,5.170050144195557
11488,,2.3800501823425293,5.209050178527832
11492,,2.725050210952759,
11493,,,
11494,,,5.15595006942749
11497,0.44857250666900983,3.2440502643585205,
11498,,,5.296950340270996
11502,,3.3139500617980957,5.137050151824951
11507,,3.4519500732421875,4.885050296783447
11513,,3.5460002422332764,4.567049980163574
11517,,,
11518,0.7311375458153403,3.5460002422332764,4.203000068664551
11522,,3.582000255584717,
11523,,,3.8389501571655273
11527,,3.5719501972198486,
11528,,,3.561000108718872
11533,,3.567000150680542,3.4099502563476562
11534,,,
11538,,3.57705020904541,3.3889501094818115
11540,0.7605908381643298,,
11544,,3.555000066757202,3.384000062942505
11548,,3.4810502529144287,
11549,,,3.3670501708984375
11553,,3.2970001697540283,
11554,,,3.376950263977051
11558,0.5783064274021251,2.9160001277923584,3.5209500789642334
11566,,2.5570502281188965,
11567,,,3.624000072479248
11570,,2.0370001792907715,3.682950258255005
11614,,1.3930500745773315,
11615,,0.07200000435113907,
11616,,,3.7740001678466797
11617,,,
11619,0.2191895938498083,,
11621,,-2.1160500049591064,5.407050132751465
11639,,-2.1229500770568848,
11640,,,5.398050308227539
11641,,,
11644,,-0.598050057888031,5.556000232696533
11645,0.7378509720850382,,
11666,,-0.3460500240325928,5.556000232696533
11667,0.8930310325228503,,5.725950241088867
11707,,-0.022950001060962677,
11708,,0.3060000240802765,
11711,,0.6250500082969666,
11712,,-0.4519500136375427,
11715,,,
11716,,,5.6610002517700195
11717,,,4.156949996948242
11718,,,
11719,,,
11720,1.001527335134314,,
11721,,-1.5240000486373901,
11725,,-1.5310500860214233,4.950000286102295
11726,,,5.722950458526611
11729,,-0.09000000357627869,
11730,,,6.208950519561768
11734,,0.7519500255584717,6.388950347900391
11735,,,
11741,1.012736099878508,1.3380000591278076,6.1020002365112305
11742,,,
11744,,1.8430501222610474,
11745,,,5.4310503005981445
11750,,2.45205020904541,4.701000213623047
11751,,,
11754,,3.687000274658203,3.7960500717163086
11757,,,
11759,,5.10705041885376,
11760,,,2.764050245285034
11761,0.699676236142486,,
11766,,6.2470502853393555,2.3140501976013184
11772,,6.907050132751465,2.1510000228881836
11775,,7.285950183868408,
11776,,,2.197050094604492
11779,0.8844926762555303,,
11780,,7.657050132751465,2.5410001277923584
11781,,,
11784,,8.155050277709961,
11785,,,2.893050193786621
11789,,8.425050735473633,
11790,,,2.8570501804351807
11794,,8.157000541687012,
11795,,,3.324000120162964
11799,,8.014050483703613,
11800,1.1096339930850732,,3.8370001316070557
11804,,8.044950485229492,4.095000267028809
11805,,,
11809,,8.317950248718262,
11810,,,3.6690001487731934
11816,,8.72700023651123,2.8530001640319824
11820,1.1760772129810395,8.626049995422363,1.8370500802993774
11824,,8.422950744628906,
11825,,,1.4419500827789307
11831,,7.678050518035889,
11832,,,1.3150500059127808
11834,,7.125000476837158,
11835,,,1.0519500970840454
11839,,6.213000297546387,
11840,1.0735878496225815,,1.3440001010894775
11845,,5.2819504737854,1.6549500226974487
11849,,5.980950355529785,
11850,,,1.2030000686645508
11855,,6.352050304412842,0.9300000667572021
11859,,6.313950061798096,
11860,1.0473944670473683,,0.24300001561641693
11864,,5.749050140380859,
11865,,,0.27900001406669617
11869,,5.290950298309326,
11870,,,1.1530500650405884
11883,1.0258661239386917,4.864950180053711,
11884,,4.843950271606445,1.7130000591278076
11885,,,2.0269501209259033
11889,,5.770050048828125,
11890,,,1.6270500421524048
11917,,6.967050552368164,
11918,,8.947050094604492,
11919,1.1051335449992978,,1.3729500770568848
11920,1.1189315094565058,10.279050827026367,0.4440000355243683
11925,,10.675950050354004,0.5470499992370605
11930,,10.627950668334961,0.6190500259399414
11935,,11.884950637817383,
11936,,,0.17100000381469727
11937,,,
11943,1.3809759152885968,13.044000625610352,-0.5100000500679016
11945,,13.486950874328613,-1.1230500936508179
11952,,13.52505111694336,
11953,,,-1.6639500856399536
11955,,13.381950378417969,-1.8490500450134277
11962,1.4509986168179798,13.19205093383789,-1.759950041770935
11965,,13.213950157165527,-1.8340500593185425
11970,,13.135050773620605,
11971,,,-2.2680001258850098
11975,,13.891950607299805,-3.5250000953674316
11976,,,
11980,1.1903422122450764,16.132949829101562,
11981,,,-4.801050186157227
11988,,18.046051025390625,
11989,,,-5.232000350952148
11990,,20.45895004272461,
11991,,,-5.079000473022461
11997,,23.043001174926758,
12002,,,-4.638000011444092
12003,1.6572005225469644,17.136001586914062,
12007,,14.782051086425781,1.2960000038146973
12012,,8.188050270080566,
12013,,,
12014,,,4.509000301361084
12016,,8.679000854492188,
12017,,,4.584000110626221
12021,,10.1850004196167,4.168950080871582
12022,1.3217428912438263,,
12026,,10.401000022888184,
12027,,,3.8650500774383545
12031,,10.804950714111328,3.561000108718872
12032,,,
12036,,10.585050582885742,
12037,,,3.00600004196167
12041,,10.081950187683105,3.4680001735687256
12042,1.1169796196726958,,
12047,,9.82395076751709,3.504000186920166
12050,,9.850050926208496,
12051,,,3.5250000953674316
12056,,9.856950759887695,3.825000286102295
12058,,,
12061,,10.093950271606445,3.931950092315674
12062,0.6665047111087173,,
12067,,10.293000221252441,3.5590500831604004
12078,,10.257000923156738,
12079,,10.081950187683105,
12080,,,3.0300002098083496
12081,,10.044000625610352,2.2300500869750977
12082,0.3731030127342602,,
12086,,10.1089506149292,0.8680500388145447
12091,,9.910050392150879,
12092,,,0.5329500436782837
12093,,,
12096,,9.723000526428223,
12098,,,0.609000027179718
12101,,10.07295036315918,0.7770000100135803
12102,0.3144293474009823,,
12106,,10.402950286865234,
12107,,,-0.1680000126361847
12113,,10.306950569152832,-0.8239500522613525
12117,,9.92400074005127,
12118,,,-1.1069999933242798
12121,0.40185795316241063,,
12122,,9.354000091552734,-1.26705002784729
12127,,8.944950103759766,-1.0440000295639038
12131,,8.935050010681152,
12132,,,-1.4560500383377075
12137,,9.096000671386719,-1.686000108718872
12138,,,
12143,0.9409936340980178,,
12144,,9.1360502243042,
12145,,,-1.5949500799179077
12146,,9.0600004196167,
12148,,,-1.1230500936508179
12151,,8.986050605773926,
12152,,,-0.2689500153064728
12156,,9.430950164794922,
12157,,,-0.2350500077009201
12162,1.1368714325079747,,
12164,,9.448050498962402,
12165,,,-0.30195000767707825
12171,,9.370950698852539,
12172,,,-0.10605000704526901
12173,,,0.7120500206947327
12177,,9.782999992370605,
12178,,,1.3750500679016113
12179,,,
12181,,10.45305061340332,
12182,,,0.7410000562667847
12183,0.5958783501734342,,
12187,,10.851000785827637,
12188,,,
12190,,,0.2050500065088272
12192,,10.984950065612793,-0.47895002365112305
12197,,11.095050811767578,
12198,,,-1.224000096321106
12199,,,
12202,,10.918050765991211,
12203,0.44940722284993573,,-1.6789500713348389
12207,,10.597050666809082,-2.007000207901001
12208,,,
12212,,10.9350004196167,-2.2870500087738037
12217,,11.236050605773926,-3.034050226211548
12218,,,
12222,,10.855950355529785,-2.9070000648498535
12223,0.7932033849389071,,
12228,,10.594950675964355,
12229,,,-2.7970502376556396
12230,,,
12232,,10.357950210571289,
12233,,,-2.803950071334839
12234,,,
12238,,10.087050437927246,
12239,,,-2.851950168609619
12240,,,
12242,0.877665410984685,10.044000625610352,
12243,,,-3.003000259399414
12247,,10.113000869750977,-3.2350502014160156
12248,,,
12254,,10.065000534057617,-3.4170000553131104
12260,,10.06095027923584,
12261,,,-3.751950263977051
12264,0.678738292993569,10.068000793457031,
12265,,,
12266,,,-3.89805006980896
12271,,9.997950553894043,
12272,,,-4.0489501953125
12273,,,
12274,,10.003050804138184,
12278,,9.86400032043457,-4.5420002937316895
12279,,,
12285,0.4718017893960209,9.757050514221191,-4.795950412750244
12286,,,
12288,,9.654000282287598,
12289,,,-4.996950149536133
12290,,,
12292,,9.445050239562988,
12293,,,-5.064000129699707
12294,,,
12298,,9.145950317382812,-4.630950450897217
12299,,,
12304,0.4790067215738573,,
12305,,8.515950202941895,-3.321000099182129
12308,,7.981950283050537,
12309,,,-2.284950017929077
12314,,7.582950592041016,-1.3120501041412354
12315,,,
12327,,5.028000354766846,1.426050066947937
12328,0.4912882719346721,,2.350050210952759
12330,,3.3450002670288086,2.6490001678466797
12331,,,
12334,,2.868000030517578,
12335,,,2.48895001411438
12339,,13.96095085144043,
12340,,,-0.19005000591278076
12343,,22.233001708984375,
12344,0.2506622394521036,,-3.5970001220703125
12350,,17.53995132446289,
12351,,,-5.349000453948975
12355,,13.534950256347656,
12356,,,-6.385950088500977
12357,,,
12358,,,
12359,,9.985950469970703,-6.594000339508057
12360,,,
12363,0.4029876778200167,9.283050537109375,
12364,,,-6.3070502281188965
12373,,9.273000717163086,
12374,,8.956950187683105,
12377,,,
12378,,,-6.094050407409668
12380,,,
12385,,8.200050354003906,
12386,0.43026995629327874,,-6.159000396728516
12396,,9.454950332641602,
12397,,,-6.499050140380859
12402,,9.996000289916992,-6.903000354766846
12434,,9.703950881958008,
12435,,8.530950546264648,
12436,,,-6.718950271606445
12437,,,-6.208950519561768
12438,0.4845432789037354,,
12439,,6.013950347900391,
12440,,,-3.3139500617980957
12444,0.39701645950817593,6.4069504737854,-3.259050130844116
12445,,,
12448,,7.120050430297852,
12449,,,-3.1300501823425293
12453,,7.768950462341309,
12454,,,-3.112950086593628
12464,,8.032950401306152,
12465,0.3041392308538092,,-3.094050168991089
12488,,8.974050521850586,
12489,,,-3.481950283050537
12490,,,-3.9049501419067383
12492,0.7314688624014715,,
12536,0.46535843316959413,10.839000701904297,
12537,,6.736950397491455,
12538,,,-5.773050308227539
12539,,,-3.475050210952759
12541,,6.984000205993652,
12542,,,-3.343050241470337
12544,,7.354950428009033,
12545,0.3884660377054855,,-3.5340001583099365
12549,,7.61400032043457,
12550,,,-3.640050172805786
12588,,7.786050319671631,
12589,,,-3.66795015335083
12590,,,-4.1860504150390625
12591,0.3560892913793654,9.361950874328613,
12602,,9.337950706481934,-4.827000141143799
12608,0.2415715737877868,,
12610,,9.238950729370117,
12611,,,-4.849050045013428
12619,,9.129000663757324,
12623,,,-4.767000198364258
12624,,,
12626,0.1801234223497223,9.031050682067871,
12653,,,
12654,,,
12655,,,-4.7029500007629395
12660,,,-4.408050060272217
12662,,,-4.180950164794922
12663,,,
12673,0.15724788544875137,,
12674,,8.931000709533691,
12675,,8.557050704956055,
12677,,8.433000564575195,
12678,,,-2.6130001544952393
12679,,8.647950172424316,
12680,,,-3.7330501079559326
12687,0.14456088818988683,8.54699993133545,
12688,,,-3.747000217437744
12689,,7.759950160980225,
12690,,,
12693,,,-3.211050033569336
12697,,7.279050350189209,
12698,,,
12699,,,-2.9290502071380615
12700,,7.609050273895264,
12701,,,-3.0079500675201416
12705,0.12038569561584724,,
12706,,7.79295015335083,-3.478950262069702
12710,,7.135050296783447,
12711,,,-3.7330501079559326
12715,,7.2109503746032715,-3.721050262451172
12716,,,
12718,,,
12721,,7.708950519561768,-3.589050054550171
12725,,7.477050304412842,
12726,0.161254316815546,,-3.637050151824951
12729,,8.020950317382812,
12730,,,-3.9030001163482666
12735,,8.212050437927246,-4.039950370788574
12740,,7.834050178527832,
12741,,,
12742,,,-4.138050079345703
12743,,,
12744,,8.302950859069824,-4.260000228881836
12745,0.17564129556114375,,
12752,,8.212050437927246,-4.4509501457214355
12755,,8.29800033569336,-4.549950122833252
12760,,8.356050491333008,-4.624050140380859
12765,,8.442000389099121,
12766,0.12834136186397624,,-5.064000129699707
12769,,8.449049949645996,
12770,,,-5.586000442504883
12775,,8.607000350952148,-5.569950103759766
12777,,,
12780,,8.410950660705566,
12781,,,-5.4280500411987305
12785,0.272718820251267,8.47800064086914,-5.26800012588501
12790,,8.670000076293945,
12791,,,-5.416050434112549
12795,,8.611950874328613,-4.89900016784668
12801,,9.180000305175781,
12802,,,-5.341950416564941
12805,,9.105000495910645,-5.389950275421143
12806,0.4150676044299014,,
12810,,9.076950073242188,-5.289000034332275
12815,,9.345000267028809,-4.870050430297852
12816,,,
12820,,9.028950691223145,-4.008000373840332
12827,0.5793769014609202,9.06195068359375,-3.4270501136779785
12831,,9.661050796508789,-3.2689502239227295
12832,,,
12835,,8.832000732421875,
12836,,,-2.8879501819610596
12840,,8.854050636291504,
12841,,,
12842,,,-2.7109501361846924
12845,0.521084435649938,9.052950859069824,
12846,,,-3.169950246810913
12850,,8.260050773620605,
12852,,,-3.214050054550171
12858,,7.777050495147705,-3.1060502529144287
12860,,8.599950790405273,-3.558000087738037
12865,0.4487746987944119,8.926050186157227,-3.7740001678466797
12870,,7.855950355529785,-3.4860000610351562
12877,,7.819950580596924,
12878,,,-3.5269501209259033
12881,,8.914050102233887,-4.096950054168701
12886,0.23775412929671422,,
12887,,8.245950698852539,-4.03695011138916
12890,,7.936950206756592,
12891,,,-3.901050090789795
12895,,7.999050617218018,
12896,,,-3.6349501609802246
12903,,7.687950134277344,
12904,,,-3.1660501956939697
12906,0.0989342135180541,8.121000289916992,-3.8149502277374268
12911,,8.19105052947998,-3.7669501304626465
12915,,7.903050422668457,
12916,,,-3.510000228881836
12921,,8.650050163269043,-3.991950273513794
12926,,8.338950157165527,
12927,0.26594465320079935,,-3.3520500659942627
12931,,8.622000694274902,-3.8620502948760986
12936,,9.475950241088867,-4.200000286102295
12940,,8.868000030517578,
12941,,,-3.8310000896453857
12942,,,
12947,,8.52405071258545,
12948,0.290067883225183,,-3.652050256729126
12953,,9.547950744628906,
12954,,,-4.023000240325928
12956,,9.582000732421875,-4.260000228881836
12957,,,
12961,,8.880000114440918,
12962,,,-3.8340001106262207
12966,0.36033855714563834,9.192000389099121,-3.8580002784729004
12971,,9.907050132751465,-4.380000114440918
12976,,9.426000595092773,
12978,,,-4.413000106811523
12981,,8.722050666809082,
12982,,,-3.7639501094818115
12986,0.25587405097163,9.333000183105469,-4.035000324249268
12991,,9.630000114440918,-4.336050033569336
12996,,8.883000373840332,-3.750000238418579
13003,,7.887000560760498,
13004,,,-3.0460500717163086
13006,,7.966050148010254,-3.0649502277374268
13007,0.14088379041634536,,
13012,,8.694000244140625,-3.7159502506256104
13016,,8.976000785827637,-4.039950370788574
13017,,,
13021,,8.434950828552246,-3.8239502906799316
13022,,,
13027,,7.63800048828125,
13028,0.030975903660982317,,-3.184950113296509
13032,,7.699950218200684,-2.83305025100708
13036,,8.260050773620605,-2.8590002059936523
13037,,,
13041,,8.54699993133545,
13042,,,-3.264000177383423
13047,0.062288369310914825,8.657999992370605,
13048,,,-3.697050094604492
13051,,8.698050498962402,
13052,,,
13053,,,-3.7789502143859863
13057,,8.72700023651123,-3.759000062942505
13062,,8.868000030517578,-3.8460001945495605
13067,,9.03795051574707,-3.9439501762390137
13068,0.12062712332111815,,
13071,,9.144000053405762,
13072,,,-4.018050193786621
13078,,9.156000137329102,
13079,,,-4.012950420379639
13082,,9.03600025177002,-3.7350001335144043
13087,,8.755949974060059,
13088,0.10896787484345147,,-3.3550500869750977
13091,,9.040950775146484,
13093,,,-3.0390000343322754
13096,,8.73705005645752,
13097,,,-3.1560001373291016
13102,,8.44694995880127,-3.9079501628875732
13103,,,
13107,,8.690999984741211,
13108,,,-4.114050388336182
13112,,8.602950096130371,
13113,,,-3.988950252532959
13116,,8.51205062866211,
13117,,,-3.9649500846862793
13121,,8.538000106811523,
13122,,,-4.165950298309326
13128,0.08307932409949678,8.607000350952148,-4.50600004196167
13132,,8.679000854492188,-5.0620503425598145
13133,,,
13137,,8.812950134277344,
13138,,,-5.6170501708984375
13142,,9.168000221252441,
13143,,,-5.718000411987305
13148,0.2080306457022528,9.466950416564941,-5.716050148010254
13152,,9.402000427246094,
13154,,,-5.586000442504883
13157,,9.226950645446777,
13158,,,-5.329950332641602
13162,,9.265950202941895,
13163,,,-5.2819504737854
13168,,9.30405044555664,
13171,,,-5.0400004386901855
13172,0.33933350196931306,8.794050216674805,-4.35105037689209
13173,,,
13177,,9.505050659179688,
13179,,,-4.063950061798096
13184,,10.398000717163086,-5.320950031280518
13188,0.3210123720094764,10.4839506149292,-5.53095006942749
13192,,9.237000465393066,
13193,,,-4.216950416564941
13197,,9.199050903320312,-4.42995023727417
13198,,,
13201,,,
13202,,8.77695083618164,-3.7570502758026123
13207,,8.241000175476074,
13208,0.16813101803811212,,-3.57705020904541
13212,,8.124000549316406,
13213,,,-3.8479502201080322
13214,,,
13217,,7.663950443267822,
13218,,,-3.312000274658203
13222,,7.654050350189209,-3.4150502681732178
13228,,7.623000144958496,
13229,0.16092378178248437,,-3.7639501094818115
13232,,7.309950351715088,
13233,,,-3.5460002422332764
13238,,6.771000385284424,-3.0270001888275146
13242,,6.381000518798828,-2.5480501651763916
13243,,,
13248,0.20816625909260184,6.7009501457214355,-2.7829501628875732
13252,,6.816000461578369,
13253,,,-2.992950201034546
13256,,,
13258,,7.015050411224365,-3.2059502601623535
13263,,7.297950267791748,-3.135000228881836
13268,,7.635000228881836,
13269,0.19819039105027275,,-3.2370002269744873
13272,,7.699950218200684,
