relative_time,LinearAccelerometerSensor,AccX,AccY
0,0.04572696563230811,,
1,,-1.3830000162124634,4.846950054168701
19,,,
71,,,
74,0.04612616595291011,-1.3519500494003296,4.82295036315918
75,,,
79,,-0.5209500193595886,
80,0.14493376510869488,,4.912050247192383
90,,,
130,,,
150,,-0.34200000762939453,4.972050189971924
151,0.2021274279305283,,
152,,-1.162950038909912,4.633950233459473
173,,,
216,,,
221,,,
222,,,
229,,-1.1340000629425049,
230,,-0.6930000185966492,4.734000205993652
231,0.07031959921707452,,4.5
233,,-1.1700000762939453,4.921050071716309
239,0.1425868188480592,-1.1440500020980835,4.990950107574463
254,,,
293,,,
300,,-1.0980000495910645,4.987950325012207
301,0.10073730042737558,,
307,,-0.7129500508308411,4.921050071716309
315,,-0.6220500469207764,4.864050388336182
325,0.08676488804551458,-0.44700002670288086,4.746000289916992
344,,-0.3750000298023224,4.699050426483154
345,0.10223743944969674,,
349,,-0.7459500432014465,4.88100004196167
357,,,
362,0.1810416940184976,-0.8179500102996826,4.870950222015381
374,,,
381,,-0.9400500655174255,
382,0.20500482429956943,,4.789950370788574
385,,-0.9570000171661377,5.110050201416016
400,0.18439225786874644,-0.781950056552887,5.107950210571289
401,,,
404,,-0.4300500154495239,4.999950408935547
409,,-0.45600003004074097,5.0119500160217285
413,,,
418,,-0.5380499958992004,5.026950359344482
419,0.09255168915605443,-0.6499500274658203,5.026950359344482
438,,-0.7560000419616699,5.022000312805176
454,,,
460,0.0755281944907656,-0.9930000305175781,4.950000286102295
461,0.1209148616142015,-1.0890001058578491,5.034000396728516
481,0.08928708028599894,-1.0360500812530518,5.0530500411987305
484,,-0.5209500193595886,5.11305046081543
493,,,
500,0.08862976174885502,-0.4320000112056732,5.118000030517578
501,,,
520,0.1105134375924861,-0.2550000250339508,5.139000415802002
526,,-0.583050012588501,5.134050369262695
534,,,
537,,-0.697950005531311,5.034000396728516
555,0.051064088739498296,-0.7459500432014465,4.915950298309326
574,,0.5149500370025635,
577,,0.1579500138759613,4.738950252532959
578,0.0884941466754402,,5.043000221252441
580,,0.11700000613927841,
581,0.10213813966881795,,5.06505012512207
585,,0.22005000710487366,4.789950370788574
594,,0.531000018119812,4.62000036239624
595,,0.5749500393867493,4.507050037384033
601,0.16347620290627804,0.598050057888031,4.7029500007629395
602,,,
614,,0.4620000123977661,5.07705020904541
615,,0.23895001411437988,5.584050178527832
620,,0.24195000529289246,5.484000205993652
622,0.18458272498642653,,
626,,0.2939999997615814,5.215950012207031
653,0.20296534352604528,0.4140000343322754,4.966950416564941
655,,0.016950000077486038,
656,,,4.689000129699707
661,,-0.1879500150680542,
662,0.13320296055400463,,5.074050426483154
680,,0.028950002044439316,5.4910502433776855
683,0.09235888265976407,-0.10905000567436218,
686,,-0.19095000624656677,5.4340500831604
692,,,
702,0.07758297349486215,-0.21705001592636108,5.424000263214111
721,0.10114254692086731,-0.08505000174045563,6.166050434112549
726,,0.1579500138759613,5.379000186920166
730,,,
744,0.11734925074325948,0.20595000684261322,5.398050308227539
746,,0.3450000286102295,5.244000434875488
772,,0.37095001339912415,5.284950256347656
773,0.1629676275498092,,5.343000411987305
777,,-1.218000054359436,5.06505012512207
801,0.2855906117729442,-4.615050315856934,5.3620500564575195
802,0.31956875914366456,-0.38700002431869507,7.73205041885376
806,,0.12195000797510147,7.04295015335083
812,,,
826,0.1801645539049891,0.5290500521659851,6.31695032119751
831,,,
850,0.09313701360932868,0.742050051689148,5.424000263214111
851,,0.4519500136375427,5.0530500411987305
853,,,
873,0.09387390571456773,0.43605002760887146,5.094000339508057
876,,0.43995001912117004,
877,,,5.36400032043457
891,0.05816833517228029,0.43800002336502075,5.4720001220703125
896,,0.9910500645637512,5.383050441741943
917,0.06806814623870454,,
918,,1.068000078201294,5.392950057983398
925,,0.4069500267505646,
926,0.13128035710854505,,5.980050086975098
949,0.33716253433926013,0.21495001018047333,6.0319504737854
953,,,
954,,0.8710500597953796,5.308950424194336
957,,1.0170000791549683,5.28000020980835
971,0.25366573679939886,1.1320500373840332,5.098050117492676
972,,0.9769500494003296,5.08905029296875
992,0.1598653360932683,0.9600000381469727,5.131950378417969
997,,0.6799500584602356,5.005050182342529
1014,,,
1016,,0.0,
1017,0.13766281610215503,0.31095001101493835,4.930950164794922
1019,,,4.3969502449035645
1023,0.07418559299985085,0.7710000276565552,4.560000419616699
1037,,0.831000030040741,4.852050304412842
1054,,1.3650000095367432,
1055,0.09920953460009072,,5.473950386047363
1056,,,
1057,,1.5150001049041748,5.515050411224365
1063,0.08512031470651213,1.3450500965118408,5.5219502449035645
1070,,,
1072,,1.1830500364303589,5.572050094604492
1078,,0.8040000200271606,5.512950420379639
1082,,0.7879500389099121,
1083,0.0866830923254949,,5.296950340270996
1089,,0.7399500608444214,5.079000473022461
1092,,0.4240500330924988,
1093,,,4.969050407409668
1098,,1.297950029373169,5.139000415802002
1106,,1.4869500398635864,
1107,0.13896706553202376,,5.422050476074219
1108,,1.1920500993728638,5.644050121307373
1110,,,
1123,,1.0530000925064087,5.593950271606445
1124,0.12105224267165499,,
1140,,1.8550500869750977,5.047950267791748
1143,0.06265029494246792,0.5820000171661377,5.400000095367432
1148,,1.1370000839233398,5.175000190734863
1150,,,
1156,,,
1158,,1.5150001049041748,4.939950466156006
1163,0.12952343979309805,1.7430000305175781,5.062950134277344
1170,,,
1175,,1.741050124168396,5.035950183868408
1178,,1.7959500551223755,4.597949981689453
1183,,1.8240001201629639,4.569000244140625
1184,0.18414763842284673,,
1192,,1.9440001249313354,4.627050399780273
1194,,2.5789501667022705,4.147950172424316
1210,0.34037699463953663,3.6730501651763916,3.025050163269043
1213,,1.6399500370025635,
1214,,,4.294050216674805
1227,,0.16005000472068787,
1228,0.10579921026192007,-0.6739500164985657,4.926000118255615
1229,,-0.7099500298500061,7.129050254821777
1233,,-0.6930000185966492,7.753950595855713
1239,,-0.7720500230789185,7.62000036239624
1245,0.3635279320396809,-1.2490500211715698,7.974000453948975
1248,,-1.2750000953674316,
1249,,,7.7560505867004395
1250,,,
1253,,-0.9810000658035278,
1254,,,7.407000541687012
1258,,,
1259,,-0.4210500121116638,6.802950382232666
1264,0.32390082524528085,0.06705000251531601,6.303000450134277
1269,,0.34200000762939453,5.974950313568115
1270,,,
1274,,0.5029500126838684,5.7019500732421875
1279,,0.7609500288963318,5.460000038146973
1284,0.32742217269370566,1.065000057220459,5.211000442504883
1289,,1.2310500144958496,4.963950157165527
1294,,1.4170501232147217,4.581000328063965
1299,,1.7839500904083252,4.122000217437744
1304,0.5730445950182574,,
1305,,2.0400002002716064,3.466050148010254
1309,,2.1760501861572266,2.5219500064849854
1321,,2.293950080871582,1.6819500923156738
1324,0.38994938598385886,1.5870001316070557,1.371000051498413
1333,,,
1339,,1.051050066947937,2.0050501823425293
1356,,,
1359,0.3725797714673756,-0.8010000586509705,2.4379501342773438
1361,,,
1368,0.42145519208593857,0.17505000531673431,5.125050067901611
1386,0.4315629777070094,1.615950107574463,4.890000343322754
1391,,,
1410,,4.135050296783447,3.00600004196167
1411,0.7864948457911562,,2.3329501152038574
1414,,4.810050010681152,
1415,,,2.4379501342773438
1419,,4.546950340270996,
1420,,,2.6130001544952393
1434,0.7297127223097303,4.23105001449585,2.877000093460083
1435,,3.5239500999450684,3.138000249862671
1453,,,
1459,,,
1463,,3.3259501457214355,3.195000171661377
1477,,,3.5209500789642334
1479,,,3.793950080871582
1480,0.8360592405853535,,
1485,,2.470950126647949,4.963950157165527
1486,0.4547044095437778,,5.103000164031982
1490,,1.8340500593185425,5.16795015335083
1491,,,
1495,,1.8430501222610474,5.239950180053711
1497,,,
1500,,1.9030500650405884,5.356950283050537
1517,0.4581495769200281,1.9969501495361328,5.551050186157227
1519,,,
1520,,,
1553,,,
1563,,2.788950204849243,5.926950454711914
1564,0.36327973232157357,,4.528950214385986
1565,,3.1750502586364746,4.629000186920166
1567,0.2656740395773502,,
1587,0.35760745457686816,2.7270002365112305,4.825050354003906
1590,,1.519950032234192,5.062950134277344
1592,,,
1593,,,
1595,,1.7050501108169556,
1596,,,4.82295036315918
1600,,1.912950038909912,
1601,,,4.528950214385986
1606,0.3291264306699066,2.0899500846862793,4.183950424194336
1610,,2.1670501232147217,3.8530502319335938
1615,,2.205000162124634,3.6000001430511475
1620,,2.221950054168701,3.406050205230713
1626,0.19732860466293695,2.0970001220703125,3.295950174331665
1640,,,
1650,0.1775078010523821,1.9870500564575195,3.214050054550171
1651,,,3.3070502281188965
1670,,,
1672,0.27543806113905905,1.6180500984191895,3.2910001277923584
1694,,2.1280500888824463,2.686950206756592
1695,0.38260571091144074,,2.1889500617980957
1718,0.4780938138327795,2.9070000648498535,1.7700001001358032
1741,,3.409050226211548,1.4209500551223755
1742,0.5534556235862832,,1.0780500173568726
1744,,,
1803,0.6265977702119093,3.450000047683716,0.8989500403404236
1806,,,
1815,,,
1848,0.6293588987789192,,
1849,0.5873860573353953,2.4439501762390137,
1850,,2.431950092315674,1.4880000352859497
1851,,,1.2480000257492065
1852,,,0.08205000311136246
1853,,,0.5250000357627869
1854,,2.9110500812530518,
1856,,,
1857,,2.977950096130371,1.758000135421753
1858,,,
1894,,,
1899,,2.883000135421753,
1900,0.06729900635571898,3.2920501232147217,2.364000082015991
1901,0.4852282484506466,,
1916,,,
1917,0.908270589312141,3.8520002365112305,4.090050220489502
1918,,4.219050407409668,
1920,,,4.768050193786621
1923,,,
1925,,4.123050212860107,5.146050453186035
1926,,,
1927,1.1655827777977863,3.8830502033233643,5.44605016708374
1932,,3.7570502758026123,5.6419501304626465
1937,,3.6820502281188965,
1938,,,5.788050174713135
1942,,3.7009501457214355,
1943,,,5.838000297546387
1948,,3.7900502681732178,5.91195011138916
1949,1.5012147276432648,,
1952,,3.916950225830078,
1953,,,5.991000175476074
1957,,3.8209502696990967,5.983950138092041
1958,,,
1959,,,
1962,,3.61995005607605,
1963,,,5.8720502853393555
1968,,3.4069502353668213,5.707050323486328
1971,1.69940640520467,,
1973,,3.3139500617980957,5.569950103759766
1977,,,
1979,,3.340050220489502,5.464950084686279
1987,,3.3930001258850098,5.563050270080566
1988,1.4960739891400576,3.261000156402588,5.818950176239014
1993,,,
1994,,,
2002,,,
2010,1.1470851071684998,3.3109500408172607,5.862000465393066
2014,,5.176050186157227,5.52495002746582
2034,,,
2057,,5.6260504722595215,5.259000301361084
2058,0.6733081082617158,5.4280500411987305,4.2870001792907715
2093,,,
2127,,5.1160502433776855,
2128,0.7668947861784086,4.4599504470825195,2.8980002403259277
2129,1.5386852441048577,1.9489500522613525,
2134,,,
2178,,,
2265,,,
2280,,,
2290,,,
2311,,,
2359,,,
2363,,,
2364,,,
2380,,1.659000039100647,
2381,,1.1989500522613525,
2382,,-2.1280500888824463,
2383,,5.470950126647949,
2384,,5.233950138092041,
2385,,4.285950183868408,
2386,,,1.4110500812530518
2392,,,2.0410501956939697
2393,,,2.5290000438690186
2394,,,1.6990500688552856
2395,,,1.9480501413345337
2396,,,1.7220001220703125
2402,1.3609413681238083,,
2403,1.3603198396224898,4.534950256347656,
2404,,4.012950420379639,1.6579500436782837
2405,,6.180000305175781,2.572050094604492
2410,,,
2433,,,
2470,,7.365000247955322,
2471,,12.57705020904541,3.025050163269043
2472,0.9463130605388725,,
2505,,13.482000350952148,1.6429500579833984
2506,0.9187405202986373,12.60105037689209,6.430050373077393
2512,1.0992189191805906,12.567000389099121,6.363000392913818
2556,,,
2569,,,
2570,,,
2590,,,
2591,,,
2631,,,
2632,,,
2672,,,
2715,,,
2733,,,
2758,,,
2759,,,
2803,,,
2834,,,
2880,,,
2914,,,
2918,,,
2964,,12.646950721740723,
2965,,12.438000679016113,
2966,,11.377950668334961,
2967,,11.18595027923584,
2968,,8.752950668334961,
2971,,9.547950744628906,
2972,,9.57705020904541,
2973,,9.463950157165527,
2980,,8.041950225830078,
2982,,8.482950210571289,
2983,,8.895000457763672,
2984,,9.838050842285156,
2985,,10.027050018310547,
2986,,9.508050918579102,6.1810503005981445
2987,,,-1.6690500974655151
2988,,,-1.4389500617980957
2989,,,-1.8799500465393066
2993,1.2099400996522096,,
2994,0.6651818210452938,9.466950416564941,-4.279050350189209
2996,,,
3003,,9.184050559997559,-3.6160502433776855
3009,,8.659950256347656,-1.9969501495361328
3012,,,
3021,,,
3026,0.1298031311561757,8.719950675964355,-1.2930001020431519
3056,,9.306000709533691,-0.2370000183582306
3057,,,0.9970500469207764
3060,0.1746731534962794,10.867950439453125,-0.17505000531673431
3063,,9.952950477600098,-2.2270500659942627
3069,,9.33495044708252,-1.987950086593628
3079,0.10720713566243179,,
3080,,8.386950492858887,-1.9399501085281372
3082,,,
3085,,8.1670503616333,-3.1630501747131348
3089,,8.406000137329102,
3091,,,-4.223999977111816
3101,0.46045224460809026,8.767950057983398,-5.115000247955322
3104,,9.148050308227539,-5.434950351715088
3113,,,
3120,,,
3150,,,
3155,,8.935050010681152,
3156,0.3427889133013733,,-4.9830002784729
3159,,9.757050514221191,-0.25905001163482666
3164,,9.781050682067871,-0.8890500664710999
3172,,10.336050033569336,-1.2889500856399536
3175,,11.574000358581543,
3176,0.13487407218527364,,-1.585050106048584
3179,,10.552050590515137,-2.236950159072876
3184,,8.72504997253418,-1.927950143814087
3191,,7.159050464630127,-0.984000027179718
3193,,,
3196,0.3008052766789847,6.886050224304199,-0.5419500470161438
3199,,7.471950531005859,
3200,,,-1.071000099182129
3204,,8.17199993133545,-1.9009500741958618
3209,,8.959050178527832,-2.233950138092041
3214,,9.706050872802734,
3215,0.36390222778980186,,-2.265000104904175
3219,,10.273950576782227,
3220,,,-2.4090001583099365
3224,,10.579950332641602,
3226,,,-2.614950180053711
3229,,10.732950210571289,
3230,,,-2.7589502334594727
3234,,10.671000480651855,
3235,0.15158464132390906,,-2.8759500980377197
3237,,,
3239,,10.687950134277344,-2.9260501861572266
3244,,10.47705078125,
3245,,,-2.7229502201080322
3250,,10.396050453186035,-2.5380001068115234
3254,,10.065000534057617,
3255,0.26335359366155703,,-2.584050178527832
3256,,,
3259,,9.844950675964355,
3260,,,-2.6479501724243164
3264,,9.570000648498535,
3265,,,-2.644050121307373
3270,,9.05505084991455,-2.263050079345703
3272,,,
3275,0.2215497564597482,9.337950706481934,-2.2489500045776367
3278,,,
3280,,9.3589506149292,-2.7589502334594727
3285,,9.04800033569336,-2.8090500831604004
3290,,9.193950653076172,-2.9569501876831055
3296,0.23160620621844658,9.079050064086914,-2.830050230026245
3300,,9.241950035095215,-2.8399500846862793
3306,,9.498000144958496,-3.0390000343322754
3325,,9.979050636291504,
3326,,9.759000778198242,-3.6349501609802246
3327,0.244538052375925,,-3.6919500827789307
3330,,9.265950202941895,
3331,,,-3.0769500732421875
3335,,9.244050025939941,
3336,0.20412819976015714,,-2.1859500408172607
3341,,9.34695053100586,-0.9510000348091125
3346,,9.922050476074219,0.034950003027915955
3351,,10.216050148010254,0.22605000436306
3352,,,
3356,0.2662164890440923,10.195050239562988,0.025050001218914986
3361,,10.135050773620605,-0.10605000704526901
3367,,10.152000427246094,0.031950000673532486
3371,,10.044000625610352,
3372,,,0.13005000352859497
3376,,9.706050872802734,-0.07695000618696213
3377,0.23897510875983166,,
3381,,9.436050415039062,-0.4630500078201294
3386,,9.259050369262695,
3387,,,-0.9799500703811646
3391,,8.919000625610352,-1.4710500240325928
3397,0.2268851958235338,8.808000564575195,-1.7100000381469727
3401,,8.599950790405273,-1.6570501327514648
3419,,8.332050323486328,-1.4730000495910645
3420,0.24282834421109528,,-1.3960500955581665
3422,,8.650050163269043,-1.6789500713348389
3427,,9.0600004196167,-1.9900500774383545
3431,,,
3432,,9.238950729370117,-2.1720001697540283
3437,0.2874453388994084,8.710050582885742,-2.026050090789795
3442,,9.412050247192383,-2.5189502239227295
3446,,9.86400032043457,
3447,,,-3.532050132751465
3452,,9.687000274658203,-4.40595006942749
3457,0.19490295387124404,9.498000144958496,-3.6540002822875977
3461,,9.586950302124023,-2.8660502433776855
3472,,9.32295036315918,-2.63700008392334
3477,,,
3478,0.11183502009019165,9.498000144958496,-2.4780001640319824
3483,,9.675000190734863,-2.4880502223968506
3486,,9.892950057983398,-2.6290500164031982
3492,,9.844950675964355,
3493,,,-2.713050127029419
3497,0.09092470035565225,,
3498,,9.682050704956055,-2.746950149536133
3504,,9.709050178527832,-2.761050224304199
3510,,9.658050537109375,
3511,,9.558000564575195,-2.814000129699707
3512,,,-2.761050224304199
3517,0.3119921491572035,9.426000595092773,-2.5860002040863037
3522,,,
3523,,9.414000511169434,-2.4589500427246094
3526,,9.559950828552246,
3527,,,-2.4019501209259033
3533,,9.550950050354004,-2.482950210571289
3536,,9.523950576782227,-2.602950096130371
3537,0.31359329902148925,,
3542,,9.5149507522583,-2.7370500564575195
3548,,9.58395004272461,-2.943000078201294
3551,,,
3553,,9.067049980163574,-2.8279502391815186
3557,0.21198116066453326,,
3558,,8.752950668334961,-2.682000160217285
3562,,8.731950759887695,-2.574000120162964
3568,,8.952000617980957,-2.7679500579833984
3572,,,
3573,,8.260050773620605,-2.4979500770568848
3576,,,
3577,0.1440502552840385,8.536050796508789,
3578,,,-2.0689501762390137
3583,,8.45205020904541,
3584,,,-1.4989501237869263
3590,,8.513999938964844,
3591,,,-1.1260499954223633
3592,,,
3600,,8.503950119018555,
3601,,,-0.859950065612793
3623,0.10952419935816292,9.31605052947998,
3624,,9.963000297546387,-1.2910500764846802
3650,0.1259262442824207,,
3651,,10.348050117492676,
3652,,,-2.1910500526428223
3655,,9.478950500488281,
3656,,,-2.7370500564575195
3657,0.06553946012084624,9.661050796508789,-2.5380001068115234
3658,,,
3664,,9.694050788879395,-3.1030502319335938
3669,,9.160050392150879,
3670,,,-3.229950189590454
3674,,,
3675,,,
3685,,9.225000381469727,
3686,,,-3.132000207901001
3687,0.10066668038152345,,
3688,,9.192000389099121,-3.1579501628875732
3697,,9.181950569152832,-3.1300501823425293
3700,0.15551258959472114,,
3703,,,
3710,,9.337950706481934,
3711,,9.261000633239746,-3.0769500732421875
3712,,,
3713,,9.151050567626953,-2.893050193786621
3719,0.19550847711745487,,
3767,,8.952000617980957,
3768,,9.067049980163574,
3784,,9.273000717163086,-2.55495023727417
3785,,,
3786,,,-2.2699501514434814
3787,,,-2.1889500617980957
3788,,,-3.498000144958496
3789,0.13583101481109844,9.62505054473877,
3790,,,
3792,,9.129000663757324,
3795,,,
3797,,,-2.0590500831604004
3799,,,-2.0239500999450684
3800,0.04801993040972302,8.796000480651855,
3806,,8.682000160217285,-2.0429999828338623
3808,,8.743950843811035,-2.2800002098083496
3819,0.09352221233906045,8.791950225830078,-2.683950185775757
3825,,8.538000106811523,-2.4400501251220703
3833,,,
3836,,8.497050285339355,-1.915950059890747
3840,0.17116530154623896,8.785050392150879,-2.0400002002716064
3843,,8.682000160217285,
3844,,,-2.0020501613616943
3850,,9.598950386047363,-2.095050096511841
3853,,9.05505084991455,-2.473950147628784
3858,0.09445719912082494,10.14900016784668,
3859,,,-3.241950035095215
3863,,9.394950866699219,
3876,,,
3877,,,-3.2350502014160156
3878,,,-3.6060001850128174
3879,,10.135050773620605,-4.690950393676758
3880,0.23795139432299395,,
3883,,11.176050186157227,-5.722950458526611
3888,,10.723950386047363,-5.716050148010254
3893,,10.951050758361816,-5.4810004234313965
3900,,9.357000350952148,-5.47605037689209
3901,0.3445844168090546,,
3904,,10.021950721740723,-5.548050403594971
3906,,,
3909,,8.916000366210938,
3910,,,-5.2699503898620605
3914,,7.73805046081543,-4.576050281524658
3918,0.39054724873179414,,
3919,,6.831000328063965,-3.6850502490997314
3924,,7.123050212860107,-3.094050168991089
3937,,6.823950290679932,-2.4810001850128174
3942,,6.879000186920166,
3943,0.3818223175195376,,-1.9369500875473022
3944,,6.643950462341309,-1.6399500370025635
3951,,7.2709503173828125,-1.76295006275177
3953,,,
3956,,7.5199503898620605,-1.7530500888824463
3961,,,
3963,0.3333162574069877,7.693050384521484,
3969,,,-2.1700501441955566
3971,,7.8510003089904785,-2.305950164794922
3973,,8.977950096130371,
3974,,,-2.823000192642212
3977,,,
3979,0.1085029476277375,9.35205078125,-3.384000062942505
3985,,9.139050483703613,-3.7639501094818115
3988,,9.019050598144531,
3989,,,-3.9150002002716064
3994,,9.127050399780273,-4.019999980926514
3999,,8.971050262451172,
4000,0.17769518619313995,,-3.889050245285034
4004,,9.007050514221191,-3.5149502754211426
4007,,,
4011,,8.880000114440918,-2.8279502391815186
4014,,8.659950256347656,-2.2579500675201416
4019,,8.78700065612793,
4020,0.11160882063013294,,-2.056950092315674
4024,,9.208050727844238,
4028,,,-2.574000120162964
4029,,9.943050384521484,-3.4429502487182617
4033,,,
4036,,10.437000274658203,-4.138050079345703
4038,,,
4039,0.1461062892591645,10.470000267028809,-4.426949977874756
4044,,10.177950859069824,
4045,,,-4.2619500160217285
4049,,10.14900016784668,
4050,,,-4.462950229644775
4054,,9.781050682067871,-4.413000106811523
4059,0.11024203392825332,,
4060,,10.021950721740723,-4.878000259399414
4064,,9.757050514221191,-5.308950424194336
4070,,9.421050071716309,-5.8470001220703125
4074,,9.097949981689453,
4075,,,-6.100950241088867
4077,,,
4080,0.28111124589636827,8.989950180053711,-6.264000415802002
4084,,9.03795051574707,
4086,,,-6.61305046081543
4089,,8.694000244140625,-6.561000347137451
4094,,8.571000099182129,-6.618000507354736
4099,,8.287050247192383,
4100,0.47004165708297657,,-6.072000503540039
4105,,8.557050704956055,-6.823950290679932
4107,,,
4110,,8.263050079345703,
4111,,,-6.433950424194336
4114,,7.839000225067139,
4115,,,-6.4360504150390625
4119,,7.876950263977051,
4120,0.5329416772860549,,-6.408000469207764
4124,,7.7500505447387695,
4127,,,-6.408000469207764
4129,,7.788000583648682,-6.529950141906738
4135,,7.708950519561768,
4136,,,-5.851950168609619
4139,,8.071050643920898,
4140,0.4139588964151598,,-5.071950435638428
4145,,7.957950592041016,
4146,,,-4.051949977874756
4149,,8.562000274658203,
4150,,,-2.7850501537323
4152,,,
4155,,8.962050437927246,-0.49800002574920654
4160,0.13790066604149123,10.099050521850586,2.5489501953125
4165,,7.177950382232666,6.075000286102295
4170,,4.522950172424316,
4171,,,7.990950584411621
4175,,2.422950029373169,7.521000385284424
4176,,,
4180,0.9726611830498179,1.1400001049041748,7.564950466156006
4185,,1.8220500946044922,
4186,,,7.201050281524658
4190,,4.80495023727417,4.717950344085693
4196,,8.550000190734863,-0.6469500064849854
4199,,,
4200,0.9371448161907604,9.204000473022461,-2.395050048828125
4205,,9.84795093536377,-4.413000106811523
4207,,,
4210,,12.903000831604004,-7.81095027923584
4215,,15.418951034545898,-10.308000564575195
4220,,15.62700080871582,-11.899950981140137
4221,0.27889107521299056,,
4225,,15.189001083374023,
4226,,,-12.769050598144531
4230,,14.53800106048584,-12.688050270080566
4233,,,
4235,,13.575000762939453,-11.754000663757324
4240,,12.520051002502441,-10.272000312805176
4241,0.6056840575311974,,
4245,,11.97900104522705,-9.325950622558594
4250,,10.984950065612793,-7.7989501953125
4255,,10.513050079345703,-6.256950378417969
4261,0.40730733093358046,,
4262,,9.438000679016113,-4.645050048828125
4265,,8.542950630187988,
4266,,,-3.1249501705169678
4270,,7.972950458526611,
4271,,,-1.8460501432418823
4274,,,
4276,,7.6020002365112305,
4278,,,-0.8190000653266907
4280,,7.54395055770874,0.05100000277161598
4281,0.4011031533042901,,
4286,,7.2709503173828125,
4287,,,1.1860500574111938
4291,,6.955050468444824,2.1889500617980957
4296,,7.156050205230713,2.5320000648498535
4301,,7.201950550079346,
4304,0.662353515625,,2.644050121307373
4306,,7.177950382232666,
4307,,,2.3209500312805176
4308,,,
4311,,7.25700044631958,
4312,,,1.7149500846862793
4313,,,
4316,,7.405050277709961,0.6930000185966492
4322,0.16785045827600487,7.578000545501709,-0.6060000061988831
4325,,,
4326,,8.196000099182129,-1.8990000486373901
4330,,8.815950393676758,
4331,,,-2.920950174331665
4337,,8.962050437927246,
4338,,,-3.8550002574920654
4340,,9.144000053405762,
4341,1.008355755727433,,-4.723950386047363
4346,,9.04800033569336,-5.287050247192383
4350,,9.175050735473633,
4351,,,-5.9569501876831055
4356,,9.151050567626953,-6.324000358581543
4361,,8.931000709533691,-6.499050140380859
4362,0.5078999077324615,,
4366,,9.057000160217285,-6.6469502449035645
4371,,9.306000709533691,-6.718950271606445
4376,,9.131999969482422,-6.040950298309326
4381,0.5209815068870881,,
4383,,10.039050102233887,-6.963000297546387
4387,,10.212000846862793,-6.751950263977051
4392,,10.422000885009766,-6.277950286865234
4397,,10.858050346374512,-6.2470502853393555
4398,,,
4401,0.4790526976705422,10.47705078125,-5.839950084686279
4403,,,
4406,,10.212000846862793,
4407,,,-5.2699503898620605
4408,,,
4411,,9.979050636291504,
4412,,,-4.6620001792907715
4416,,9.642000198364258,-4.084949970245361
4422,0.14475764122371781,9.478950500488281,-3.5680501461029053
4426,,9.32805061340332,
4427,,,-2.992950201034546
4431,,9.196050643920898,-2.464050054550171
4437,,9.097949981689453,-2.0280001163482666
4441,,9.121950149536133,-1.7700001001358032
4442,0.25933814189035487,,
4446,,8.955000877380371,
4447,,,-1.4560500383377075
4451,,8.920950889587402,
4452,,,-1.1710500717163086
4453,,,
4456,,8.860950469970703,-0.9250500202178955
4461,,8.842050552368164,
4462,0.38475877010222653,,-0.6400500535964966
4466,,8.820000648498535,-0.43605002760887146
4471,,8.694000244140625,
4472,,,-0.25394999980926514
4473,,,
4476,,8.550000190734863,
4477,,,0.018000001087784767
4481,,8.217000007629395,
4482,0.14009964349481477,,0.24795001745224
4486,,7.876950263977051,0.3840000033378601
4492,,6.814050197601318,0.8610000610351562
4497,,5.940000057220459,1.3369500637054443
4501,,8.89905071258545,
4502,0.5214746881506821,,0.43695002794265747
4506,,11.884950637817383,
4507,,,-1.2739500999450684
4508,,,
4512,,12.076951026916504,-2.5380001068115234
4516,,10.858050346374512,
4517,,,-2.9239501953125
4522,,9.826050758361816,-2.074050188064575
4523,0.5460409343539434,,
4526,,8.092950820922852,
4529,,,-1.0279500484466553
4532,,6.3349504470825195,-0.043950002640485764
4534,,,
4537,,5.479950428009033,0.9709500670433044
4542,0.8816536580864565,5.239050388336182,1.1220000982284546
4547,,5.571000099182129,1.015950083732605
4552,,5.253000259399414,1.0690500736236572
4557,,5.485050201416016,0.987000048160553
4563,1.0157873170698173,5.641050338745117,0.6760500073432922
4567,,6.141000270843506,0.7000500559806824
4572,,8.49000072479248,
4573,,,-0.8500500321388245
4575,,,
4576,,,
4577,,10.777050971984863,-3.0319502353668213
4582,,13.045950889587402,-5.931000232696533
4583,0.38855264262973566,,
4585,,,
4587,,15.448050498962402,
4588,,,-8.220000267028809
4592,,17.006999969482422,-9.853050231933594
4597,,17.926050186157227,
4598,,,-10.870050430297852
4602,,16.213951110839844,-10.51395034790039
4603,0.8646687538202175,,
4607,,13.360050201416016,
4608,,,-9.376049995422363
4609,,,
4612,,12.283050537109375,
4613,,,-8.47605037689209
4614,,,
4617,,15.814050674438477,-9.192000389099121
4622,1.1235187103248219,14.50200080871582,-8.914050102233887
4627,,14.677050590515137,
4628,,,-7.284000396728516
4632,,14.770051002502441,-6.505950450897217
4637,,11.818050384521484,
4639,,,-6.064950466156006
4642,,7.6110005378723145,-5.397000312805176
4643,1.0756231941239016,,
4647,,6.157950401306152,
4648,,,-5.301000118255615
4654,,5.5759501457214355,-5.526000499725342
4658,,5.278950214385986,-6.0169501304626465
4662,,5.254950046539307,
4663,0.7792110539269125,,-6.6250505447387695
4668,,5.7960004806518555,-7.102050304412842
4672,,6.052950382232666,
4673,,,-7.030050277709961
4678,,7.348050117492676,-6.834000110626221
4680,,,
4685,0.7854034262501562,8.45895004272461,-7.011000156402588
4688,,7.848000526428223,-6.301950454711914
4693,,7.027050495147705,-4.69605016708374
4695,,,
4705,,5.650050163269043,
4706,0.6853232603189431,,-3.249000072479248
4707,,3.052950143814087,
4708,,,-0.6589500308036804
4709,,,
4713,,1.9750500917434692,-0.3910500109195709
4718,,0.5359500050544739,0.11400000751018524
4723,,1.081950068473816,
4724,0.5667872232868086,,-0.5680500268936157
4728,,0.6889500617980957,-0.9960000514984131
4731,,,
4733,,0.9619500637054443,-1.5660001039505005
4738,,3.0840001106262207,-2.8950002193450928
4743,1.1049601325010823,5.665050506591797,-4.494000434875488
4748,,7.129950523376465,
4749,,,-5.977050304412842
4753,,8.104949951171875,-6.561000347137451
4758,,8.160000801086426,
4759,,,-6.7950005531311035
4763,1.0064733908860106,8.314949989318848,-6.430950164794922
4768,,7.92495059967041,-6.331050395965576
4773,,8.047050476074219,-7.000950336456299
4778,,8.401050567626953,-7.309950351715088
4780,,,
4783,0.9257185387597788,8.329950332641602,-8.128950119018555
4788,,8.746050834655762,-8.553000450134277
4794,,8.101950645446777,-8.66295051574707
4799,,7.996950149536133,-9.001049995422363
4813,0.3707326035189761,8.128050804138184,-9.100950241088867
4814,,7.935000419616699,-8.51205062866211
4818,,7.993950366973877,-8.81100082397461
4824,0.29687728379023653,7.8600006103515625,-8.71095085144043
4828,,7.803000450134277,-8.613000869750977
4833,,8.044950485229492,
4834,,,-8.814000129699707
4838,,8.253000259399414,
4839,,,-9.108000755310059
4843,,9.01200008392334,-10.795950889587402
4844,0.382802768505732,,
4850,,8.317950248718262,
4851,,,-11.182050704956055
4853,,7.516050338745117,-10.231050491333008
4858,,7.156050205230713,
4859,,,-9.597000122070312
4864,0.9535161450864006,7.504050254821777,-8.874000549316406
4868,,7.674000263214111,
4869,,,-8.138999938964844
4872,,,
4873,,,
4874,,7.305000305175781,-7.723950386047363
4879,,7.590000152587891,-7.111050128936768
4880,,,
4884,1.4129203694117964,6.880950450897217,-6.048000335693359
4889,,6.880950450897217,-5.433000087738037
4894,,7.498950481414795,-4.969050407409668
4899,,7.759950160980225,-3.949050188064575
4904,,8.42805004119873,-2.8470001220703125
4905,1.3840606573682153,,
4909,,8.75100040435791,-1.894050121307373
4912,,,
4913,,,
4914,,8.878050804138184,-1.1020500659942627
4919,,9.040950775146484,-0.6589500308036804
4924,1.4094398771185361,8.992950439453125,-0.3160500228404999
4929,,9.010050773620605,-0.8820000290870667
4933,,,
4934,,8.919000625610352,-2.1820499897003174
4939,,10.293000221252441,-3.6130502223968506
4945,1.2597623603246215,11.143050193786621,-4.878000259399414
4949,,11.329950332641602,-5.890050411224365
4954,,10.374000549316406,-6.609000205993652
4959,,9.517050743103027,
4960,,,-7.248000144958496
4965,,8.230950355529785,
4966,0.8501880998610035,,-7.380000114440918
4969,,7.14900016784668,-7.035000324249268
4972,,,
4974,,6.739950180053711,-6.918000221252441
4979,,6.583950519561768,-7.012950420379639
4984,,6.831000328063965,
4985,0.5708128680670013,,-6.622950077056885
4989,,7.0219502449035645,-6.385950088500977
4994,,7.273950576782227,-5.980950355529785
4999,,7.5319504737854,-5.785050392150879
5004,,7.870050430297852,
5005,0.516511588382985,,-5.5219502449035645
5009,,8.539950370788574,
5010,,,-5.296950340270996
5014,,9.177000045776367,-4.866000175476074
5020,,9.223050117492676,-5.167050361633301
5024,,8.959050178527832,
5025,0.48885898743235906,,-4.855950355529785
5029,,9.201000213623047,
5032,,,-4.6720499992370605
5035,,9.694050788879395,-4.846050262451172
5039,,10.135050773620605,
5040,,,-4.912950038909912
5046,0.4874977539695449,9.919050216674805,-4.420050144195557
5050,,10.044000625610352,-4.3030500411987305
5054,,10.021950721740723,
5055,,,-4.044000148773193
5060,,10.141950607299805,-3.8050501346588135
5065,0.600957194385967,10.008000373840332,-3.790950298309326
5070,,9.667950630187988,-3.3760502338409424
5075,,8.322000503540039,-1.9969501495361328
5080,,7.6210503578186035,-0.7590000629425049
5085,0.31273916152695086,7.117950439453125,-0.34995001554489136
5090,,7.633050441741943,-0.6280500292778015
5093,,,
5095,,7.414950370788574,
5096,,,-0.1270500123500824
5100,,6.745050430297852,1.0879501104354858
5105,,7.080000400543213,1.76295006275177
5106,0.570218222154532,,
5110,,7.578000545501709,1.9399501085281372
5114,,,
5115,,8.614950180053711,
5116,,,2.047950029373169
5120,,9.184050559997559,
5121,,,2.2230000495910645
5125,0.9539040992706322,10.009950637817383,2.5600500106811523
5130,,9.742050170898438,3.1930501461029053
5134,,,
5135,,9.555000305175781,3.7699501514434814
5140,,9.414000511169434,4.081050395965576
5146,1.2620901972341714,9.262950897216797,4.375050067901611
5150,,9.35205078125,
5151,,,4.4760003089904785
5155,,9.253950119018555,4.750950336456299
5161,,8.965950012207031,5.082000255584717
5165,1.3554845803515438,,
5166,,8.968950271606445,5.163000106811523
5171,,9.105000495910645,5.151000022888184
5174,,,
5176,,9.169950485229492,4.240950107574463
5180,,8.851950645446777,
5181,,,3.0390000343322754
5186,1.2559842867749136,8.908950805664062,1.801050066947937
5190,,9.180000305175781,
5191,,,0.6450000405311584
5196,,9.843000411987305,-0.5389500260353088
5200,,10.261950492858887,
5201,,,-1.533000111579895
5205,,10.675950050354004,
5206,0.8085188531511673,,-2.376000165939331
5210,,11.059050559997559,
5211,,,-2.9770500659942627
5215,,,
5216,,11.265000343322754,-3.388050079345703
5221,,11.548050880432129,
5222,,,-4.018050193786621
5226,0.6070099933687753,,
5227,,11.623950958251953,-4.753050327301025
5231,,11.63895034790039,-5.449950218200684
5233,,,
5237,,11.21505069732666,-6.094050407409668
5239,,,
5240,,,
5241,,11.169000625610352,-7.380000114440918
5247,,11.830050468444824,
5248,0.9934655316175831,,-8.554950714111328
5251,,,
5252,,11.935050964355469,-9.481950759887695
5256,,11.847000122070312,
5257,,,-10.38705062866211
5261,,11.695950508117676,
5262,,,-11.182050704956055
5266,,11.370000839233398,
5267,1.4374293434359149,,-11.689050674438477
5271,,11.026050567626953,-11.778000831604004
5276,,10.525050163269043,
5277,,,-11.254050254821777
5281,,9.984000205993652,
5283,,,-10.05405044555664
5286,,9.354000091552734,
5287,1.5956963267000608,,-8.731950759887695
5292,,8.655000686645508,-7.552050590515137
5293,,,
5294,,,
5298,,7.329000473022461,-6.268950462341309
5301,,6.843000411987305,-4.969050407409668
5306,1.4531886589298662,6.928950309753418,-4.870050430297852
5311,,7.116000175476074,-4.6020002365112305
5316,,7.018050193786621,
5317,,,-4.24500036239624
5322,,6.594000339508057,-3.4360501766204834
5327,1.2610736532338684,5.641050338745117,-2.3899500370025635
5332,,5.928000450134277,
5333,,,-1.8610501289367676
5336,,6.129000186920166,-1.3840500116348267
5341,,6.3160505294799805,
5342,,,-1.1020500659942627
5348,0.749141798154744,6.129000186920166,-0.5509500503540039
5352,,6.454950332641602,-0.32805001735687256
5356,,6.8550004959106445,
5357,,,-0.21405000984668732
5361,,7.354950428009033,-0.5149500370025635
5366,,7.678050518035889,
5367,0.4625240918921252,,-0.9769500494003296
5372,,8.404050827026367,-1.8610501289367676
5373,,,
5376,,8.121000289916992,
5377,,,-1.7959500551223755
5381,,8.530950546264648,
5382,,,-2.3830502033233643
5387,,8.794050216674805,
5388,0.4577149225344386,,-2.9290502071380615
5391,,8.820000648498535,-3.2970001697540283
5397,,8.983050346374512,-3.5460002422332764
5401,,9.069000244140625,
5403,,,-3.6349501609802246
5407,0.6472604708791543,9.265950202941895,-3.889050245285034
5411,,9.619950294494629,
5412,,,-4.300950050354004
5417,,9.94800090789795,-4.7029500007629395
5422,,,
5423,,10.324050903320312,-5.014050006866455
5427,,10.67400074005127,
5429,0.7813966613437514,,-5.067000389099121
5432,,11.077950477600098,-4.939950466156006
5437,,11.07300090789795,-4.7029500007629395
5442,,9.555000305175781,-4.018050193786621
5447,,9.58905029296875,
5448,0.5733525496504253,,-4.176000118255615
5452,,9.582000732421875,-5.373000144958496
5454,,,
5458,,9.214950561523438,-4.948950290679932
5462,,9.409049987792969,-4.7820000648498535
5467,0.34075927187758875,9.703950881958008,-4.545000076293945
5473,,9.687000274658203,-4.255050182342529
5476,,,
5477,,9.795000076293945,
5478,,,-4.068000316619873
5483,,9.418950080871582,-4.120950222015381
5488,0.3490872986982566,8.70300006866455,-3.57705020904541
5492,,,
5493,,7.89900016784668,-3.558000087738037
5497,,7.333950519561768,
5499,,,-3.8839502334594727
5502,,7.836000442504883,
5503,,,-4.945050239562988
5507,,8.028000831604004,
5508,0.4992458795808205,,-5.871000289916992
5513,,8.461050033569336,-5.725050449371338
5517,,,
5518,,8.614950180053711,-5.383050441741943
5523,,8.629050254821777,-4.921050071716309
5526,,,
5528,,8.614950180053711,-4.629000186920166
5529,0.4719688524297757,,
5533,,8.526000022888184,-4.248000144958496
5534,,,
5537,,8.740950584411621,-3.9409501552581787
5543,,8.788949966430664,-3.7450501918792725
5548,0.241559306021199,8.904000282287598,-3.6450002193450928
5553,,8.758049964904785,
5554,,,-3.652050256729126
5557,,8.602950096130371,
5558,,,-3.690000057220459
5563,,8.425050735473633,-3.573000192642212
5568,0.0779180318438471,8.467950820922852,-3.7759501934051514
5573,,,
5574,,8.374950408935547,-3.750000238418579
5576,,,
5578,,8.47605037689209,-3.751950263977051
5582,,8.646000862121582,
5583,,,-3.76200008392334
5588,0.267136285569346,8.629050254821777,-3.652050256729126
5593,,8.659950256347656,-3.6469502449035645
5598,,8.812950134277344,
5599,,,-3.76200008392334
5603,,8.907000541687012,-3.781050205230713
5608,0.24175649407440708,,
5609,,8.89905071258545,-3.7639501094818115
5613,,8.959050178527832,-3.7350001335144043
5617,,,
5618,,8.911050796508789,-3.6250500679016113
5623,,8.832000732421875,-3.532050132751465
5628,0.16334961801377137,8.788949966430664,-3.412050247192383
5633,,8.713050842285156,-3.324000120162964
5638,,8.655000686645508,-3.2950501441955566
5643,,8.641050338745117,-3.289950132369995
5648,,8.674050331115723,
5649,0.3769223294501476,,-3.30495023727417
5653,,8.701050758361816,
5654,,,-3.2950501441955566
5659,,8.740950584411621,-3.3259501457214355
5663,,8.78700065612793,-3.349950075149536
5669,0.2154660661957635,8.839950561523438,-3.328050136566162
5673,,8.904000282287598,-3.3570001125335693
5676,,,
5678,,8.974050521850586,-3.361950159072876
5683,,9.02595043182373,
5684,,,-3.3570001125335693
5688,,9.100950241088867,
5689,0.18761754325215058,,-3.3600001335144043
5694,,9.217950820922852,-3.433950185775757
5699,,9.318000793457031,-3.44100022315979
5704,,9.213000297546387,
5705,,,-3.400050163269043
5714,,9.2989501953125,
5717,0.10676473846329865,,-3.4429502487182617
5720,,9.108000755310059,-3.2659502029418945
5723,,9.196050643920898,-3.1900501251220703
5732,0.13830784579624344,9.694050788879395,-3.3670501708984375
5735,,9.532050132751465,-3.324000120162964
5738,,9.121950149536133,-3.388050079345703
5743,,8.989950180053711,-3.7380001544952393
5751,0.07448549709171065,9.02595043182373,-4.437000274658203
5753,,8.832000732421875,-4.918050289154053
5758,,8.287050247192383,
5759,,,-4.803000450134277
5764,,8.217000007629395,-4.890000343322754
5769,0.0889940247482103,8.42805004119873,
5770,,,-5.002050399780273
5774,,8.320050239562988,
5775,,,-4.996950149536133
5778,,,
5779,,8.44005012512207,
5780,,,-5.016000270843506
5784,,8.473050117492676,-4.806000232696533
5789,,8.509050369262695,-4.698000431060791
5794,,8.353950500488281,-4.918050289154053
5799,,7.999050617218018,-5.100000381469727
5804,,7.675950527191162,-5.143050193786621
5809,,7.434000492095947,-4.992000102996826
5810,0.23791878131176103,,
5814,,7.477050304412842,-4.987950325012207
5818,,,
5819,,7.494000434875488,-4.861050128936768
5824,,7.6710004806518555,-4.690950393676758
5829,,7.678050518035889,-4.7029500007629395
5830,0.25030109036619996,,
5834,,7.70205020904541,
5835,,,-4.710000038146973
5839,,7.963050365447998,
5840,,,-5.1739501953125
5844,,8.06100082397461,-5.038050174713135
5849,0.26261188643014916,8.044950485229492,-4.924950122833252
5854,,8.3100004196167,-5.0119500160217285
5860,,8.515950202941895,-4.954050064086914
5864,,8.72504997253418,-4.73205041885376
5870,0.2151601109404144,8.824950218200684,-4.369950294494629
5873,,,
5874,,8.962050437927246,-4.059000015258789
5879,,8.995050430297852,-3.8479502201080322
5885,,9.164999961853027,-3.751950263977051
5891,0.13472818462692668,9.421050071716309,-3.9340500831604004
5895,,9.63705062866211,-4.006050109863281
5900,,9.594000816345215,-3.889050245285034
5904,,9.405000686645508,
5905,,,-3.649050235748291
5910,0.05402587112825944,,
5912,,9.235050201416016,-3.372000217437744
5913,,,
5915,,9.08595085144043,-3.010050058364868
5920,,8.722050666809082,-2.7280502319335938
5924,,8.952000617980957,
5925,,,-2.8540501594543457
5929,,9.939000129699707,
5930,0.17197886493139602,,-3.8430001735687256
5932,,,
5935,,9.979050636291504,-4.348050117492676
5940,,9.02400016784668,-4.150050163269043
5945,,8.491950035095215,-3.6949501037597656
5951,0.16527813181006645,7.846050262451172,-3.241950035095215
5954,,7.846050262451172,
5955,,,-2.7709500789642334
5960,,8.035050392150879,-2.4469501972198486
5965,,8.22195053100586,-2.470950126647949
5971,0.3480086201752507,8.518950462341309,-2.6130001544952393
5973,,,
5975,,8.758049964904785,-2.9670002460479736
5977,,,
5980,,9.057000160217285,-3.3480000495910645
5981,,,
5985,,9.193950653076172,-3.8770501613616943
5991,0.2672588643476495,8.928000450134277,-4.14300012588501
5995,,9.031050682067871,-4.368000030517578
6000,,8.788949966430664,-4.4920501708984375
6005,,8.73705005645752,-4.513950347900391
6011,0.14769774489681214,8.599950790405273,-4.630950450897217
6013,,,
6015,,8.71500015258789,-4.902000427246094
6020,,9.361950874328613,-5.505000114440918
6025,,9.541050910949707,-6.063000202178955
6026,,,
6030,,9.220050811767578,
6031,0.12874264883610018,,-6.040950298309326
6036,,8.662050247192383,
6038,,,-5.4280500411987305
6040,,8.020950317382812,-4.8919501304626465
6045,,7.417050361633301,-4.272000312805176
6050,0.14167189331323832,7.255050182342529,-3.7140002250671387
6053,,,
6057,,7.587000370025635,-3.7549502849578857
6061,,8.056950569152832,-4.128000259399414
6066,,8.657999992370605,-4.50600004196167
6070,,8.598000526428223,
6071,0.18829421873263175,,-4.509000301361084
6076,,8.503950119018555,-4.426949977874756
6080,,8.251049995422363,
6081,,,-4.377000331878662
6086,,8.005949974060059,-4.260000228881836
6091,0.18488186573049703,8.039999961853027,-4.413000106811523
6093,,,
6096,,8.121000289916992,-4.461000442504883
6100,,8.266950607299805,
6101,,,-4.53000020980835
6106,,8.386950492858887,-4.51800012588501
6111,,8.638050079345703,-4.557000160217285
6112,0.22663175412332345,,
6116,,8.683950424194336,
6117,,,-4.42995023727417
6121,,8.731950759887695,-4.321950435638428
6126,,,
6127,,8.860950469970703,-4.528050422668457
6131,0.23222289664003504,8.931000709533691,-4.743000030517578
6133,,,
6137,,9.00195026397705,-4.959000110626221
6141,,9.133950233459473,-5.115000247955322
6142,,,
6146,,9.213000297546387,-5.056950092315674
6151,,9.268050193786621,-4.873050212860107
6152,0.14324657305517938,,
6156,,9.181950569152832,-4.62600040435791
6161,,9.084000587463379,-4.2430500984191895
6166,,8.895000457763672,-3.82200026512146
6170,,,
6171,0.13396388834262102,8.690999984741211,-3.490950107574463
6175,,,
6176,,8.551950454711914,-3.472050189971924
6181,,8.398950576782227,-3.478950262069702
6186,,8.22705078125,-3.5850002765655518
6191,,8.133000373840332,
6192,0.17148577444074678,,-3.7549502849578857
6196,,8.164050102233887,
6197,,,-3.867000102996826
6201,,8.053950309753418,
6202,,,-3.787950277328491
6210,,7.956000328063965,
6211,,8.026050567626953,-3.649050235748291
6212,0.09418279862615064,,
6214,,,
6216,,8.196000099182129,-3.6090002059936523
6221,,8.348999977111816,-3.6540002822875977
6226,,8.617050170898438,
6227,,,-3.7950000762939453
6231,0.17413139141652492,8.919000625610352,-4.044000148773193
6236,,9.249000549316406,-4.281000137329102
6241,,9.487950325012207,-4.39394998550415
6246,,9.630000114440918,-4.365000247955322
6251,,9.682050704956055,-4.276950359344482
6252,0.19698468589077364,,
6254,,,
6257,,9.642000198364258,-4.198050022125244
6259,,,
6262,,9.691950798034668,-4.123050212860107
6266,,9.76395034790039,
6267,,,-4.027950286865234
6271,,9.690000534057617,
6272,0.1407275157356792,,-3.979950189590454
6277,,9.475950241088867,-3.7860002517700195
6281,,9.144000053405762,
6283,,,-3.621000289916992
6287,,8.800950050354004,
6288,,,-3.5560500621795654
6292,,8.617050170898438,
6293,0.14607432511671722,,-3.66795015335083
6294,,,
6297,,8.42805004119873,-3.6090002059936523
6301,,8.080950736999512,
6302,,,-3.490950107574463
6307,,7.935000419616699,-3.5560500621795654
6312,,8.026050567626953,
6313,0.2073040909773843,,-3.724050283432007
6317,,8.152050018310547,-3.9750001430511475
6322,,8.22705078125,
6323,,,-4.095000267028809
6326,,8.128050804138184,
6327,,,-4.222050189971924
6332,0.11260234528543873,8.193000793457031,-4.447050094604492
6333,,,
6338,,8.54699993133545,-4.867950439453125
6342,,8.926050186157227,-5.152950286865234
6347,,8.868000030517578,-4.990050315856934
6352,0.10506387989810481,8.647950172424316,-4.735949993133545
6357,,8.830050468444824,-4.605000019073486
6363,,8.847000122070312,-4.569000244140625
6368,,8.896950721740723,-4.743000030517578
6373,0.15059801763229422,8.770050048828125,-4.863000392913818
6378,,8.770050048828125,-5.206050395965576
6382,,8.7610502243042,-5.5410003662109375
6388,,8.689050674438477,-5.689050197601318
6392,0.20634925722511216,8.659950256347656,
6393,,,-5.7300004959106445
6397,,8.50005054473877,
6398,,,-5.5909504890441895
6403,,8.454000473022461,-5.4910502433776855
6407,,8.550000190734863,
6408,,,-5.526000499725342
6412,,8.71500015258789,-5.4280500411987305
6413,,,
6414,0.1894466851309891,,
6417,,8.743950843811035,
6418,,,-5.304000377655029
6420,,,
6421,,,
6422,,8.73705005645752,-5.131050109863281
6427,,8.598000526428223,-4.975950241088867
6432,,8.503950119018555,
6433,0.21527047693954093,,-4.8510003089904785
6438,,8.380050659179688,
6439,,,-4.806000232696533
6442,,8.196000099182129,-4.878000259399414
6447,,8.047050476074219,-4.98105001449585
6452,,7.894050598144531,-5.179050445556641
6453,0.1956751793954996,,
6458,,7.687950134277344,-5.260950088500977
6464,,7.590000152587891,-5.299050331115723
6473,,,
6476,0.24135282721632792,7.642050266265869,-5.407050132751465
6478,,7.678050518035889,-5.335050106048584
6483,,7.788000583648682,-5.2099504470825195
6489,,7.815000534057617,-4.890000343322754
6493,,7.999050617218018,-4.504050254821777
6494,0.12118545643650934,,
6498,,8.119050025939941,-4.174050331115723
6503,,8.329950332641602,-4.012950420379639
6508,,8.574000358581543,-3.9559502601623535
6513,,8.659950256347656,
6514,0.0721741625924382,,-3.751950263977051
6518,,8.79900074005127,
6519,,,-3.4860000610351562
6523,,8.998050689697266,-3.3450002670288086
6526,,,
6528,,8.976000785827637,
6530,,,-2.545950174331665
6533,,8.677050590515137,-1.7239500284194946
6534,0.24494075884869213,,
6538,,9.016950607299805,
6539,,,-1.297950029373169
6543,,9.321000099182129,-1.4419500827789307
6548,,9.844950675964355,-1.420050024986267
6553,,9.879000663757324,-1.3680000305175781
6554,0.44264211907471773,,
6558,,10.153950691223145,-1.111050009727478
6563,,10.446000099182129,-1.1929500102996826
6569,,10.585050582885742,-1.0800000429153442
6573,,,
6574,,10.449000358581543,
6575,0.5364626233074417,,-1.0300500392913818
6576,,,
6578,,10.264050483703613,-1.363050103187561
6583,,10.032000541687012,-2.158050060272217
6589,,9.772950172424316,-2.871000051498413
6593,0.4406850882066435,9.703950881958008,-3.747000217437744
6598,,8.983050346374512,-4.669050216674805
6603,,8.659950256347656,-5.2510504722595215
6609,,8.229000091552734,-5.766000270843506
6613,,,
6614,0.2597450305547797,7.887000560760498,-6.046050071716309
6618,,7.686000347137451,
6619,,,-6.2470502853393555
6623,,7.4509501457214355,
6624,,,-6.168000221252441
6626,,,
6628,,7.000950336456299,
6629,,,-6.039000511169434
6634,0.23031803634283307,6.402000427246094,-5.91195011138916
6639,,5.236050128936768,-5.665050506591797
6643,,5.137950420379639,
6644,,,-6.055950164794922
6648,,4.147050380706787,
6649,,,-6.123000144958496
6653,,,
6654,0.8571761350472833,3.226950168609619,-6.0360002517700195
6658,,2.4760501384735107,
6659,,,-6.799950122833252
6664,,1.8030000925064087,
6665,,,-7.767000198364258
6669,,2.1450002193450928,-8.263050079345703
6674,,2.341050148010254,
6675,1.118074451837072,,-8.995950698852539
6676,,,
6680,,3.4999501705169678,-9.952950477600098
6684,,4.6620001792907715,-10.84695053100586
6689,,5.8060503005981445,-10.714950561523438
6694,1.0315053219160992,7.402950286865234,-10.570950508117676
6699,,7.9609503746032715,-10.708050727844238
6704,,8.884950637817383,-10.609050750732422
6709,,9.436050415039062,
6710,,,-9.373950004577637
6715,1.0301621218744992,9.802050590515137,-7.570950508117676
6719,,10.405050277709961,-6.244950294494629
6723,,,
6724,,11.083050727844238,-5.2819504737854
6729,,11.425050735473633,
6730,,,-4.462950229644775
6731,,,
6734,,11.665050506591797,
6735,0.6565390812992665,,-3.4669501781463623
6739,,11.442000389099121,-2.0280001163482666
6744,,10.779000282287598,
6745,,,-0.5560500025749207
6749,,10.144050598144531,1.114050030708313
6754,,10.080000877380371,
6755,0.41070889978846087,,2.278050184249878
6759,,10.200000762939453,
6760,,,3.114000082015991
6764,,10.422000885009766,
6765,,,3.6120002269744873
6769,,11.131050109863281,
6774,,12.321001052856445,1.480950117111206
6775,0.9794248213569036,,
6776,,,
6780,,13.486950874328613,-0.05505000427365303
6784,,13.855950355529785,
6785,,,-1.114050030708313
6790,,13.425000190734863,
6792,,,-2.3299500942230225
6794,,12.582000732421875,
6795,1.2108601699256465,,-3.271050214767456
6799,,12.093000411987305,
6800,,,-3.7789502143859863
6804,,11.916000366210938,-4.0920000076293945
6809,,11.404050827026367,
6810,,,-3.991950273513794
6815,1.6471449860507184,10.76205062866211,-3.573000192642212
6819,,10.159050941467285,
6820,,,-3.184950113296509
6821,,,
6824,,10.0489501953125,
6825,,,-3.1489500999450684
6830,,9.678000450134277,-3.1060502529144287
6831,,,
6834,,9.64905071258545,
6835,1.2575728857558441,,-3.241950035095215
6840,,9.35205078125,-3.259050130844116
6845,,9.685050010681152,-3.3570001125335693
6850,,8.571000099182129,-2.9380500316619873
6855,0.9970084086152523,8.677050590515137,-3.4150502681732178
6860,,8.385000228881836,-3.3550500869750977
6865,,8.2339506149292,-3.621000289916992
6870,,7.948950290679932,-3.901050090789795
6872,,,
6875,0.6588445418990486,7.753050327301025,-4.096950054168701
6880,,7.6900506019592285,-4.369950294494629
6885,,7.65000057220459,-4.6620001792907715
6890,,7.73805046081543,-4.9519500732421875
6895,0.33783657545743107,7.753050327301025,-5.10705041885376
6900,,7.360050201416016,-5.014050006866455
6905,,7.506000518798828,-5.151000022888184
6910,,7.812000274658203,-5.383050441741943
6913,,,
6915,0.733393439264447,8.131050109863281,-5.446950435638428
6920,,8.257950782775879,-5.6509504318237305
6924,,,
6925,,8.269950866699219,-5.610000133514404
6930,,8.76300048828125,-5.806950092315674
6935,0.9290501950626693,9.232050895690918,-5.875950336456299
6940,,9.193950653076172,
6941,,,-5.509950160980225
6946,,9.366000175476074,-5.344050407409668
6950,,9.229950904846191,-5.25600004196167
6954,,,
6955,0.6992379297790642,9.261000633239746,-5.09505033493042
6960,,8.626049995422363,-4.996950149536133
6966,,7.966050148010254,-5.104950428009033
6971,,7.699950218200684,
6972,,,-5.191050052642822
6973,,,
6975,,7.846050262451172,-4.7719502449035645
6976,0.6279259855122697,,
6981,,8.257950782775879,-4.767000198364258
6982,,,
6986,,8.598000526428223,-4.746000289916992
6990,,8.569050788879395,
6991,,,-4.561950206756592
6996,0.33329281958105483,8.569050788879395,-4.420050144195557
7000,,8.590950012207031,-4.104000091552734
7005,,8.752950668334961,
7006,,,-4.075050354003906
7011,,8.892000198364258,-4.087049961090088
7015,,8.73705005645752,
7016,0.16207906715467124,,-3.811950206756592
7018,,,
7021,,8.269950866699219,-3.391050100326538
7024,,,
7026,,7.968000411987305,-3.1750502586364746
7030,,8.1739501953125,
7031,,,-2.992950201034546
7035,,8.133000373840332,
7036,0.10910128506339392,,-2.9380500316619873
7041,,8.277000427246094,
7042,,,-2.8999500274658203
7046,,8.433000564575195,-3.072000026702881
7051,,8.278950691223145,-3.160950183868408
7056,0.18966753123974084,8.377050399780273,-3.2809500694274902
7061,,8.533050537109375,-3.751950263977051
7066,,8.988000869750977,-4.341000080108643
7071,,9.2989501953125,-4.9830002784729
7073,,,
7076,0.20469211398449852,9.354000091552734,-5.158050060272217
7081,,9.84795093536377,-4.813050270080566
7086,,9.309000015258789,-4.225950241088867
7091,,9.2989501953125,-3.6180002689361572
7093,,,
7097,0.24479514315686432,9.168000221252441,-3.181950092315674
7101,,9.381000518798828,-2.8180501461029053
7106,,10.075050354003906,-2.4760501384735107
7111,,10.486950874328613,-2.4690001010894775
7116,0.3628128477582817,10.839000701904297,-2.614950180053711
7121,,11.121000289916992,
7122,,,-2.731950044631958
7124,,,
7126,,11.089950561523438,-2.6509501934051514
7131,,11.22705078125,
7132,,,-2.410950183868408
7133,,,
7137,0.42221008344853683,10.741050720214844,-1.9729501008987427
7142,,10.285950660705566,-1.6600500345230103
7146,,9.82800006866455,-1.492050051689148
7152,,9.534000396728516,
7153,,,-1.4970000982284546
7157,,9.2989501953125,
7158,0.40138712367088003,,-1.755000114440918
7161,,9.096000671386719,
7162,,,-1.7700001001358032
7167,,8.571000099182129,-1.915950059890747
7172,,8.196000099182129,
7173,,,-2.6080501079559326
7177,0.22636254300083328,7.7500505447387695,-3.2880001068115234
7181,,7.438950538635254,
7182,,,-4.11899995803833
7187,,6.70395040512085,-4.930050373077393
7192,,6.4170002937316895,-6.403050422668457
7197,0.24012619777372768,,
7199,,6.595950126647949,-7.533000469207764
7203,,6.23205041885376,-8.17199993133545
7207,,5.998050212860107,-8.803950309753418
7212,,5.689050197601318,-9.211050033569336
7213,,,
7217,0.5907739794510007,,
7219,,4.8510003089904785,
7220,,,-9.609000205993652
7222,,4.2709503173828125,-9.999000549316406
7224,,,
7227,,3.838050127029419,
7228,,,-10.219050407409668
7232,,3.579000234603882,-10.296000480651855
7237,,3.5340001583099365,-10.284000396728516
7238,0.9328630852202275,,
7242,,4.324050426483154,-9.907950401306152
7247,,4.860000133514404,-8.826000213623047
7252,,5.406000137329102,
7253,,,-8.263050079345703
7257,1.0908793243046238,,
7258,,4.599000453948975,-7.7749505043029785
7261,,,
7262,,5.061000347137451,-7.636050224304199
7267,,5.08305025100708,-7.534950256347656
7272,,5.56695032119751,-7.717050552368164
7276,,,
7277,,5.587950229644775,-7.312950134277344
7278,1.106547553783745,,
7282,,5.545050144195557,-6.9370503425598145
7287,,5.646000385284424,-6.88200044631958
7293,,5.719950199127197,-6.5560503005981445
7297,1.0827703602615437,6.088950157165527,-6.448050498962402
7298,,,
7303,,6.400050163269043,-6.223050117492676
7307,,6.699000358581543,
7308,,,-6.0169501304626465
7313,,6.955050468444824,-5.203050136566162
7319,0.8296389506300662,7.171050548553467,-4.783950328826904
7322,,7.597050189971924,-3.901050090789795
7324,,,
7327,,8.029950141906738,
7328,,,-3.1249501705169678
7333,,8.334000587463379,-2.373000144958496
7337,,9.187050819396973,-1.5970500707626343
7338,0.1864778852512145,,
7343,,9.760950088500977,-0.8740500211715698
7347,,10.309950828552246,
7348,,,-0.13395000994205475
7353,,10.807950973510742,0.5419500470161438
7358,0.8409218898474007,10.91295051574707,1.0930500030517578
7363,,11.23905086517334,1.1959500312805176
7369,,11.140950202941895,1.1290500164031982
7373,,11.847000122070312,
7374,,,0.999000072479248
7378,1.6621516902571079,12.982050895690918,0.612000048160553
7379,,,
7383,,13.597050666809082,0.6709500551223755
7388,,14.242950439453125,
7389,,,0.781950056552887
7392,,14.908950805664062,
7393,,,1.1770501136779785
7398,1.9760375400058394,15.289950370788574,1.6360501050949097
7403,,15.477001190185547,2.086050033569336
7408,,15.192000389099121,
7409,,,2.3400001525878906
7413,,14.236050605773926,
7414,,,2.2800002098083496
7418,,12.402000427246094,1.5810000896453857
7420,1.8911887345157612,,
7423,,11.497050285339355,
7424,,,-1.0249500274658203
7429,,10.807950973510742,-2.221950054168701
7433,,10.90095043182373,-3.5059502124786377
7438,,11.095050811767578,-4.570950031280518
7439,1.3953234989292354,,
7443,,10.707000732421875,-5.272950172424316
7448,,9.679950714111328,-5.296950340270996
7454,,9.486000061035156,-6.166050434112549
7458,0.8556671260943466,9.376049995422363,-6.397950172424316
7464,,8.365950584411621,-7.06095027923584
7472,,,
7475,,7.82895040512085,-7.426950454711914
7478,0.2993499338809734,6.955050468444824,-8.505000114440918
7481,,,
7483,,6.40500020980835,-8.931000709533691
7488,,6.010050296783447,-9.25200080871582
7493,,5.784000396728516,
7494,,,-9.712050437927246
7498,,5.48805046081543,
7499,0.8778101550105202,,-10.152000427246094
7504,,5.109000205993652,-10.34595012664795
7509,,4.555950164794922,-10.231050491333008
7513,,,
7514,,4.0819501876831055,-9.666000366210938
7519,1.6136743837778929,3.199050188064575,-8.602950096130371
7523,,1.8649500608444214,
7524,,,-6.94605016708374
7530,,2.0280001163482666,-5.950050354003906
7533,,3.1909501552581787,
7534,,,-5.613000392913818
7539,,4.422000408172607,-5.2920002937316895
7540,1.760204535650394,,
7543,,5.004000186920166,-5.016000270843506
7549,,5.016000270843506,-4.858050346374512
7554,,6.040950298309326,-4.564050197601318
7559,1.5998140793306836,6.867000102996826,-4.9710001945495605
7564,,7.839000225067139,-4.666950225830078
7569,,8.361000061035156,-4.305000305175781
7574,,8.611950874328613,-3.9100501537323
7576,,,
7579,,9.180000305175781,-3.769050121307373
7580,1.0317570566833105,,
7584,,9.84000015258789,-3.4270501136779785
7589,,10.318950653076172,-3.24495005607605
7594,,10.555950164794922,-3.091050148010254
7599,0.3351034522985248,10.828950881958008,-2.791950225830078
7604,,11.257950782775879,-2.6650500297546387
7614,,,
7618,,11.404050827026367,-2.6080501079559326
7620,0.39171942937158283,11.46405029296875,-2.1820499897003174
7624,,11.322000503540039,-1.8850500583648682
7630,,11.16195011138916,-1.67205011844635
7635,,11.038050651550293,-1.5349500179290771
7639,0.9235527160336939,10.990050315856934,-1.6000500917434692
7644,,10.831950187683105,-1.6090500354766846
7650,,10.798050880432129,-2.0209500789642334
7653,,,
7655,,10.705050468444824,-2.4570000171661377
7659,,10.683000564575195,
7660,1.225829324454247,,-3.063000202178955
7664,,10.4839506149292,
7665,,,-3.2809500694274902
7666,,,
7669,,10.233000755310059,-3.1489500999450684
7675,,10.1089506149292,-4.0159502029418945
7677,,,
7680,1.1627976887514957,9.86205005645752,-4.272000312805176
7685,,9.484050750732422,
7686,,,-4.425000190734863
7690,,,
7691,,9.250950813293457,-4.564050197601318
7695,,8.931000709533691,-4.534950256347656
7700,0.7942599228073105,8.671950340270996,-4.504050254821777
7704,,8.635950088500977,-4.666950225830078
7710,,8.184000015258789,-4.6810503005981445
7715,,8.212050437927246,-4.4320502281188965
7721,0.36726733618108187,7.948950290679932,-4.404000282287598
7724,,7.984950542449951,-4.267050266265869
7726,,,
7729,,7.882050514221191,
7730,,,-4.31505012512207
7733,,,
7735,,7.7410502433776855,
7736,,,-4.353000164031982
7739,,7.647000312805176,
7740,0.016245018081890165,,-4.44195032119751
7745,,7.786050319671631,-4.297950267791748
7749,,7.795950412750244,
7750,,,-4.288949966430664
7754,,7.8600006103515625,
7755,,,-4.293000221252441
7760,0.29032180311327904,7.82895040512085,-4.084949970245361
7764,,7.932000160217285,
7765,,,-3.951000213623047
7770,,8.125950813293457,-3.8959500789642334
7775,,8.224050521850586,-3.8340001106262207
7776,,,
7777,,,
7780,0.41846513239564737,8.278950691223145,-3.642000198364258
7786,,8.302950859069824,-3.513000249862671
7790,,8.2339506149292,-3.3450002670288086
7795,,8.257950782775879,
7797,,,-3.3000001907348633
7800,0.43812654114042654,8.362950325012207,-3.510000228881836
7805,,8.583000183105469,-3.5749502182006836
7810,,8.860950469970703,-3.4150502681732178
7815,,9.06195068359375,-3.384000062942505
7820,0.29812347007854734,9.004950523376465,-3.259050130844116
7825,,9.01200008392334,-3.2730002403259277
7827,,,
7830,,9.04800033569336,-3.3259501457214355
7835,,9.145950317382812,-3.493950128555298
7840,0.175733983784672,9.177000045776367,-3.550950050354004
7845,,9.232050895690918,
7846,,,-3.6280500888824463
7851,,9.133950233459473,-3.592050075531006
7855,,9.151050567626953,
7856,,,-3.532050132751465
7860,,9.157950401306152,
7861,0.18393247888901107,,-3.570000171661377
7866,,9.247050285339355,-3.6640501022338867
7870,,9.141000747680664,
7871,,,-3.6610500812530518
7874,,,
7875,,9.211050033569336,
7876,,,-3.790950298309326
7880,,9.31605052947998,-3.9850502014160156
7881,0.18927001953125,,
7886,,9.268050193786621,-4.099050045013428
7890,,9.2989501953125,-4.272000312805176
7896,,9.400050163269043,-4.483050346374512
7899,,,
7909,,9.349950790405273,
7910,0.19311666186705734,9.28695011138916,-4.570950031280518
7911,,9.268050193786621,-4.698000431060791
7919,,9.259050369262695,-4.597050189971924
7922,0.18927817771475183,9.225000381469727,-4.449000358581543
7926,,9.28695011138916,
7927,,,-4.285950183868408
7932,,9.390000343322754,
7933,,,-4.068000316619873
7935,,,
7936,,9.450000762939453,-3.7950000762939453
7941,,9.306000709533691,
7942,0.16883140649038064,,-3.4360501766204834
7946,,9.289950370788574,-3.4840502738952637
7951,,9.01200008392334,
7952,,,-3.4459502696990967
7956,,8.839950561523438,
7957,,,-3.642000198364258
7962,,8.88705062866211,
7963,,,-3.859950065612793
7967,0.12516575492646612,,
7968,,9.05505084991455,-3.558000087738037
7971,,9.157950401306152,
7972,,,-2.965050220489502
7975,,,
7976,,8.859000205993652,-2.410950183868408
7982,,8.638050079345703,
7984,0.04649523540058032,,-2.3299500942230225
7986,,8.605050086975098,
7987,,,-2.5069501399993896
7991,,8.971050262451172,
7992,,,-3.2160000801086426
7996,,8.935050010681152,
7997,,,-3.589050054550171
8002,,8.796000480651855,
8003,0.15497748042147902,,-3.7450501918792725
8007,,8.622000694274902,
8008,,,-3.811950206756592
8011,,8.497050285339355,
8012,,,-4.075050354003906
8016,,,
8017,,8.551950454711914,-6.136950492858887
8022,,8.578950881958008,
8023,0.26268897350278303,,-6.952950477600098
8026,,,
8027,,8.977950096130371,-9.766950607299805
8032,,8.053950309753418,
8033,,,-35.854949951171875
8037,,18.876001358032227,
8038,,,-38.12505340576172
8043,,10.482000350952148,
8046,1.850793219962809,,-14.902050971984863
8048,,5.101950168609619,
8049,,,2.095950126647949
8055,,3.89805006980896,5.625000476837158
8058,,1.5180001258850098,
8059,,,4.6080002784729
8062,0.5415474931736559,1.828950047492981,
8063,,,5.584050178527832
8067,,3.7420501708984375,5.689950466156006
8072,,4.453050136566162,
8073,,,4.033050060272217
8077,,5.818050384521484,2.3519999980926514
8083,0.7595919138356959,7.872000217437744,1.927950143814087
8087,,9.253950119018555,
8088,,,0.8370000123977661
8092,,8.830050468444824,
8093,,,-0.7830000519752502
8095,,,
8096,,,
8097,,9.915000915527344,
8098,,,-1.831950068473816
8102,,10.993950843811035,
8103,0.4567839939942951,,-2.83305025100708
8107,,10.09695053100586,
8108,,,-3.489000082015991
8112,,9.972000122070312,
8113,,,-4.204950332641602
8117,,9.622950553894043,
8118,,,-4.504050254821777
8122,,9.462000846862793,
8123,0.20198696708830807,,-3.3259501457214355
8127,,,
8128,,10.815000534057617,
8129,,,-2.565000057220459
8132,,11.241000175476074,
8133,,,-1.7290500402450562
8137,,10.731000900268555,
8138,,,-0.8239500522613525
8139,,,
8142,,9.157950401306152,
8143,0.23101435750304622,,-0.05100000277161598
8149,,9.460050582885742,-0.970050036907196
8152,,9.771000862121582,
8153,,,-2.739000082015991
8157,,9.131999969482422,
8158,,,-2.7559502124786377
8162,,8.920950889587402,
8163,,,-3.1969501972198486
8164,0.3559565707649842,,
8167,,9.607950210571289,
8168,,,-3.9220502376556396
8172,,10.561050415039062,
8173,,,-5.148000240325928
8176,,,
8178,,10.540050506591797,-4.6720499992370605
8182,,9.85200023651123,
8183,1.3001970691964153,,-4.264950275421143
8188,,9.187050819396973,-3.9529502391815186
8189,,,
8193,,8.847000122070312,-4.02495002746582
8198,,8.73705005645752,-3.7930502891540527
8203,,8.689050674438477,
8204,0.7318202688730205,,-3.7260000705718994
8208,,8.404050827026367,-3.2569501399993896
8214,,8.014050483703613,
8215,,,-2.656050205230713
8218,,8.131050109863281,
8219,,,-2.7109501361846924
8223,,8.119050025939941,-2.6700000762939453
8224,0.6159935520936954,,
8227,,,
8228,,8.47095012664795,
8229,,,-2.244000196456909
8233,,8.634000778198242,-2.2990500926971436
8238,,8.677050590515137,
8239,,,-1.8130500316619873
8243,,9.541050910949707,
8244,0.47651625236862444,,-3.181950092315674
8248,,9.771000862121582,-5.1220502853393555
8253,,8.842050552368164,-3.7669501304626465
8258,,9.189000129699707,-1.8250501155853271
8263,0.20563187994940624,7.91295051574707,
8264,,,-0.25200000405311584
8268,,9.31095027923584,
8269,,,-0.15105000138282776
8273,,8.701050758361816,-0.07695000618696213
8278,,9.87405014038086,
8279,,,-1.1470500230789185
8283,0.1411420271478756,,
8284,,10.4170503616333,
8285,,,-2.761050224304199
8288,,10.585050582885742,
8289,,,-3.5149502754211426
8293,,10.681050300598145,
8294,,,-3.6280500888824463
8295,,,
8298,,10.566000938415527,
8300,,,-3.870000123977661
8303,,10.71405029296875,
8307,0.1800297608044955,,-4.114050388336182
8308,,10.795950889587402,-4.480050086975098
8313,,10.17300033569336,-4.39394998550415
8318,,10.171050071716309,
8319,,,-4.369950294494629
8323,,9.586950302124023,
8324,0.1338597688603454,,-4.423050403594971
8327,,,
8330,,9.280050277709961,
8331,,,-3.2730002403259277
8333,,9.181950569152832,
8334,,,-2.761050224304199
8336,,,
8338,,8.968950271606445,
8339,,,-3.264000177383423
8343,,8.731950759887695,
8344,0.03732203266333205,,-3.478950262069702
8349,,8.884950637817383,
8350,,,-3.8149502277374268
8354,,8.907000541687012,-4.183050155639648
8359,,8.779950141906738,
8360,,,-4.3560004234313965
8365,,8.650050163269043,
8366,,,-4.384050369262695
8367,0.06867257982571505,,
8369,,8.479949951171875,
8370,,,-4.300950050354004
8374,,8.326950073242188,-4.219050407409668
8376,,,
8379,,8.218950271606445,
8380,,,-4.153950214385986
8384,0.18554814990760088,8.21505069732666,-4.204950332641602
8387,,,
8389,,8.251049995422363,
8390,,,-4.320000171661377
8394,,8.29800033569336,
8396,,,-4.425000190734863
8399,,8.338950157165527,-4.474950313568115
8404,0.22376225818855164,8.398950576782227,-4.522950172424316
8409,,8.49000072479248,
8410,,,-4.528050422668457
8414,,8.550000190734863,-4.5259504318237305
8415,,,
8416,,,
8419,,8.590950012207031,-4.4509501457214355
8424,0.3738193801925339,,
8425,,8.657999992370605,-4.401000022888184
8430,,8.71500015258789,-4.336050033569336
8434,,8.785050392150879,
8435,,,-4.3030500411987305
8439,,8.890050888061523,
8440,,,-4.296000003814697
8447,0.29901294353467045,8.956950187683105,-4.249950408935547
8449,,9.01395034790039,
8450,,,-4.237950325012207
8454,,9.03795051574707,-4.195050239562988
8456,,,
8459,,9.096000671386719,
8460,,,-4.156949996948242
8465,,9.105000495910645,-4.078050136566162
8468,0.19794971520578528,,
8470,,9.129000663757324,
8471,,,-4.068000316619873
8474,,9.153000831604004,
8475,,,-4.023000240325928
8479,,9.100950241088867,
8480,,,-3.961050271987915
8485,,9.127050399780273,-3.9100501537323
8488,0.1289301980054797,,
8490,,9.07395076751709,
8491,,,-3.8239502906799316
8495,,9.079050064086914,-3.790950298309326
8499,,9.034049987792969,
8500,,,-3.6919500827789307
8505,0.07411695074230783,,
8506,,9.03795051574707,
8507,,,-3.6160502433776855
8509,,9.01395034790039,
8510,,,-3.513000249862671
8514,,9.01200008392334,
8515,,,-3.460050106048584
8520,,9.007050514221191,-3.3930001258850098
8525,,9.028950691223145,
8526,0.06600311572720195,,-3.349950075149536
8533,,9.040950775146484,
8534,,9.04995059967041,-3.301950216293335
8535,,,-3.2730002403259277
8536,,,
8540,,9.028950691223145,-3.2400002479553223
8544,,9.03600025177002,-3.2659502029418945
8545,0.136350701711599,,
8549,,9.02400016784668,
8550,,,-3.24495005607605
8554,,9.02595043182373,-3.2659502029418945
8560,,9.004950523376465,-3.2809500694274902
8564,,8.971050262451172,
8565,0.16096457165734818,,-3.264000177383423
8569,,8.952000617980957,
8570,,,-3.3139500617980957
8574,,8.911050796508789,
8575,,,-3.3790502548217773
8576,,,
8579,,8.89905071258545,
8580,,,-3.42900013923645
8584,0.13971957815543853,,
8585,,8.868000030517578,-3.4860000610351562
8589,,8.815950393676758,
8590,,,-3.472050189971924
8594,,8.782050132751465,
8595,,,-3.481950283050537
8600,,8.800950050354004,-3.4860000610351562
8605,0.12040229239544857,8.77695083618164,-3.4840502738952637
8610,,8.796000480651855,-3.510000228881836
8614,,8.788949966430664,
8615,,,-3.5250000953674316
8620,,8.7649507522583,-3.5029501914978027
8625,0.11639786760500621,8.7649507522583,-3.4579501152038574
8630,,8.76300048828125,
8631,,,-3.4270501136779785
8635,,8.74905014038086,-3.3550500869750977
8640,,8.76300048828125,-3.3000001907348633
8645,0.10348955311924353,8.796000480651855,
8646,,,-3.2760002613067627
8650,,8.81100082397461,-3.2350502014160156
8655,,8.848950386047363,
8656,,,-3.15405011177063
8660,,8.860950469970703,
8661,,,-3.1060502529144287
8666,,8.878050804138184,
8667,,,-3.1030502319335938
8669,0.08608307213172786,,
8671,,8.932950019836426,-3.0580501556396484
8676,,8.977950096130371,
8677,,,-3.0319502353668213
8680,,9.004950523376465,
8681,,,-3.043950080871582
8686,,9.03795051574707,
8687,,,-3.015000104904175
8689,0.06246802883199453,,
8692,,9.028950691223145,
8693,,,-2.9860501289367676
8695,,9.076950073242188,
8696,,,-3.015000104904175
8701,,9.08595085144043,-2.983950138092041
8705,0.04667034773982517,9.07395076751709,-2.965050220489502
8710,,9.069000244140625,
8711,,,-2.950050115585327
8715,,9.069000244140625,
8716,,,-2.905050039291382
8721,,9.076950073242188,-2.9449501037597656
8726,0.04900546295320693,9.052950859069824,-2.8999500274658203
8730,,9.05505084991455,
8731,,,-2.874000072479248
8735,,9.043050765991211,-2.851950168609619
8737,,,
8741,,9.069000244140625,
8742,,,-2.830050230026245
8747,0.07429551245666435,,
8748,,9.117000579833984,-2.811000108718872
8752,,9.157950401306152,
8756,,9.205950736999512,
8757,,,-2.7709500789642334
8760,,9.247050285339355,
8761,,,-2.713050127029419
8766,,9.357000350952148,
8767,0.10829521539831234,,-2.7109501361846924
8771,,9.361950874328613,-2.662950038909912
8775,,,
8776,,9.440999984741211,-2.6509501934051514
8781,,9.505050659179688,
8782,,,-2.625000238418579
8786,0.14006898153390684,,
8791,,9.62700080871582,-2.6890501976013184
8799,,9.8860502243042,
8800,,,-2.746950149536133
8801,,9.972000122070312,
8803,,,-2.806950092315674
8806,0.16498261677140852,,
8807,,10.089000701904297,-2.8570501804351807
8812,,10.171050071716309,
8813,,,-2.931000232696533
8814,,,
8816,,10.22295093536377,-3.0169501304626465
8821,,10.216050148010254,
8822,,,-3.072000026702881
8826,,10.16100025177002,
8827,0.193524145955945,,-3.1440000534057617
8831,,10.080000877380371,
8832,,,-3.2089500427246094
8835,,,
8836,,9.988950729370117,
8837,,,-3.283050060272217
8841,,9.915000915527344,
8842,,,-3.384000062942505
8846,,9.855000495910645,
8848,0.193305027192303,,-3.4549500942230225
8851,,9.790050506591797,
8852,,,-3.580050230026245
8855,,,
8856,,9.670050621032715,
8857,,,-3.690000057220459
8861,,9.586950302124023,
8862,,,-3.799950122833252
8866,0.16255013742375088,,
8867,,9.430950164794922,-3.8740501403808594
8871,,9.318000793457031,
8872,,,-3.894000291824341
8876,,9.184050559997559,
8877,,,-3.9649500846862793
8882,,9.08595085144043,-3.9940502643585205
8886,0.14611901177054448,8.988000869750977,
8887,,,-4.03695011138916
8891,,8.935050010681152,
8892,,,-4.003950119018555
8895,,,
8896,,8.848950386047363,
8897,,,-3.973050117492676
8901,,8.800950050354004,
8902,,,-3.9409501552581787
8907,,8.722050666809082,-3.8959500789642334
8908,0.15343206427088213,,
8911,,8.655000686645508,
8912,,,-3.8239502906799316
8917,,8.574000358581543,
8918,,,-3.7740001678466797
8923,,8.538000106811523,
8924,,,-3.6919500827789307
8927,0.1634419034178696,8.473050117492676,
8928,,,-3.633000135421753
8931,,,
8932,,8.421000480651855,-3.57705020904541
8936,,,
8937,,8.385000228881836,-3.510000228881836
8938,,,
8942,,8.374950408935547,
8943,,,-3.541950225830078
8948,0.18430750670255072,8.380050659179688,-3.642000198364258
8952,,8.394000053405762,
8953,,,-3.658950090408325
8957,,8.421000480651855,-3.6850502490997314
8962,,8.506950378417969,
8963,,,-3.7830002307891846
8967,0.22172212404583172,8.562000274658203,-3.867000102996826
8972,,8.611950874328613,
8973,,,-3.9679501056671143
8977,,8.689050674438477,-4.044000148773193
8978,,,
8982,,8.76300048828125,
8983,,,-4.13100004196167
8987,,8.820000648498535,-4.180950164794922
8988,0.22923179625742426,,
8992,,8.907000541687012,-4.219050407409668
8997,,8.962050437927246,
8998,,,-4.255050182342529
9002,,9.046050071716309,
9003,,,-4.285950183868408
9008,,9.131999969482422,-4.288949966430664
9009,0.17693638080255084,,
9013,,9.238950729370117,
9014,,,-4.256999969482422
9017,,9.342000007629395,
9018,,,-4.260000228881836
9022,,9.393000602722168,-4.210050106048584
9027,0.08683412604902906,9.412050247192383,
9028,,,-4.140000343322754
9032,,9.426000595092773,
9033,,,-4.071000099182129
9039,,9.417000770568848,-3.979950189590454
9042,,9.397050857543945,
9043,,,-3.886050224304199
9047,0.03594835826111707,9.3589506149292,-3.8239502906799316
9050,,,
9052,,9.30405044555664,
9054,,,-3.730950117111206
9057,,9.241950035095215,
9062,,9.160050392150879,
9063,,,-3.6469502449035645
9067,0.05154053950105197,9.06195068359375,-3.573000192642212
9072,,8.983050346374512,
9073,,,-3.5659501552581787
9079,,8.884950637817383,
9080,,,-3.57705020904541
9082,,8.72700023651123,
9083,,,-3.5940001010894775
9087,,8.581050872802734,
9088,0.058905718713104877,,-3.5940001010894775
9094,,,
9097,,8.449049949645996,
9098,,,-3.598950147628784
9099,,8.373000144958496,
9103,,8.313000679016113,
9104,,,-3.67995023727417
9107,,8.275050163269043,
9108,0.02064476379364612,,-3.702000141143799
9113,,8.188050270080566,-3.7069501876831055
9118,,8.121000289916992,-3.7039501667022705
9123,,8.104949951171875,-3.697050094604492
9128,0.04543091699341992,8.109000205993652,-3.7710001468658447
9132,,8.128050804138184,
9133,,,-3.7860002517700195
9134,,,
9138,,8.184000015258789,-3.7930502891540527
9139,,,
9143,,8.263050079345703,
9144,,,-3.7950000762939453
9148,,8.348999977111816,
9149,0.11744404368418412,,-3.7450501918792725
9153,,8.421000480651855,
9154,,,-3.712050199508667
9158,,8.54699993133545,-3.7039501667022705
9163,,8.686050415039062,
9164,,,-3.6780002117156982
9170,,8.847000122070312,
9171,0.17820141809457968,,-3.6640501022338867
9174,,8.986050605773926,-3.6280500888824463
9178,,9.129000663757324,-3.5659501552581787
9183,,9.295050621032715,-3.5250000953674316
9189,0.19035946456004046,,
9190,,9.472050666809082,-3.5220000743865967
9193,,9.654000282287598,
9194,,,-3.538950204849243
9198,,9.82800006866455,-3.5680501461029053
9203,,9.943050384521484,
9204,,,-3.6130502223968506
9208,0.14914369742824143,,
9209,,9.979050636291504,-3.6610500812530518
9211,,,
9213,,9.940950393676758,-3.709050178527832
9219,,9.904950141906738,
9220,,,-3.759000062942505
9224,,9.838050842285156,-3.787950277328491
9228,,9.759000778198242,
9229,0.12432829866664445,,-3.826050281524658
9234,,9.651000022888184,
9235,,,-3.886050224304199
9238,,9.535950660705566,
9239,,,-3.951000213623047
9243,,9.382950782775879,
9244,,,-4.0159502029418945
9248,,9.214950561523438,
9250,0.1549853885977846,,-4.0320000648498535
9251,,,
9254,,9.052950859069824,-4.0159502029418945
9259,,8.928000450134277,-3.996000289916992
9264,,8.782050132751465,-3.961050271987915
9269,,8.674050331115723,
9270,0.15825654529004493,,-3.939000129699707
9273,,8.557050704956055,
9274,,,-3.870000123977661
9279,,8.44005012512207,-3.807000160217285
9285,,8.325000762939453,
9286,,,-3.7639501094818115
9289,,8.253000259399414,
9290,,,-3.7159502506256104
9292,0.1230546403886856,,
9294,,8.193000793457031,-3.6730501651763916
9297,,,
9299,,8.1739501953125,-3.6040501594543457
9304,,8.1670503616333,
9306,,,-3.598950147628784
9309,,8.230950355529785,
9313,0.07432818187902301,,-3.561000108718872
9314,,8.289000511169434,-3.550950050354004
9319,,8.370000839233398,-3.5179500579833984
9324,,8.47800064086914,-3.5059502124786377
9329,0.06940156892906617,8.629050254821777,-3.490950107574463
9334,,8.788949966430664,-3.513000249862671
9339,,8.907000541687012,-3.4840502738952637
9344,,9.034049987792969,-3.4860000610351562
9349,,9.08595085144043,-3.421950101852417
9350,0.07025003970346992,,
9354,,9.156000137329102,-3.3570001125335693
9360,,9.208050727844238,-3.2970001697540283
9364,,9.261000633239746,-3.2880001068115234
9369,0.08888539976525683,9.295050621032715,-3.2880001068115234
9374,,9.313950538635254,-3.249000072479248
9376,,,
9379,,9.34005069732666,-3.2730002403259277
9384,,9.325950622558594,
9385,,,-3.301950216293335
9389,0.09557970516182657,9.325950622558594,-3.340050220489502
9394,,9.33495044708252,-3.3979501724243164
9399,,9.30405044555664,-3.463050127029419
9404,,9.268050193786621,
9405,,,-3.520050048828125
9413,0.1043476370532729,9.235050201416016,-3.598950147628784
9414,,9.175050735473633,-3.6469502449035645
9420,,9.100950241088867,-3.6850502490997314
9425,,9.03795051574707,
9426,,,-3.6880502700805664
9430,,8.988000869750977,-3.727950096130371
9431,0.09981955997863805,,
9435,,8.907000541687012,
9436,,,-3.747000217437744
9439,,,
9440,,8.81100082397461,-3.7639501094818115
9445,,8.755949974060059,
9446,,,-3.7450501918792725
9451,0.1113975375434944,8.682000160217285,-3.721050262451172
9454,,,
9455,,8.679000854492188,-3.721050262451172
9460,,8.655000686645508,
9461,,,-3.702000141143799
9465,,8.670000076293945,
9466,,,-3.6610500812530518
9470,0.11806780464852429,,
9471,,8.626049995422363,-3.6229500770568848
9475,,8.587950706481934,-3.5460002422332764
9480,,8.581050872802734,
9481,,,-3.4579501152038574
9486,,8.605050086975098,-3.430950164794922
9490,0.09446151758428685,,
9491,,8.626049995422363,-3.4050002098083496
9492,,,
9493,,,
9495,,8.622000694274902,-3.372000217437744
9500,,8.638050079345703,
9501,,,-3.3600001335144043
9505,,8.643000602722168,
9506,,,-3.3550500869750977
9510,0.0686943633739439,,
9511,,8.682000160217285,-3.373950242996216
9517,,8.72700023651123,-3.4099502563476562
9520,,8.734050750732422,
9521,,,-3.4480502605438232
9525,,8.74905014038086,
9526,,,-3.5029501914978027
9530,,8.77695083618164,
9531,0.08384429260676196,,-3.621000289916992
9534,,,
9535,,8.81100082397461,
9536,,,-3.7380001544952393
9539,,,
9541,,8.859000205993652,-3.8479502201080322
9546,,8.896950721740723,-4.018050193786621
9550,,8.950050354003906,
9551,0.10334032438199232,,-4.204950332641602
9555,,8.971050262451172,
9557,,,-4.3030500411987305
9560,,9.007050514221191,
9564,,,-4.510950088500977
9567,,9.08595085144043,-4.7719502449035645
9571,,9.141000747680664,
9572,,,-4.969050407409668
9574,0.13379429716464422,,
9578,,9.189000129699707,-5.115000247955322
9581,,9.163050651550293,
9582,,,-5.208000183105469
9585,,9.131999969482422,-5.328000068664551
9591,0.18725535207428531,9.076950073242188,-5.3710503578186035
9595,,9.004950523376465,
9596,,,-5.3710503578186035
9600,,8.896950721740723,
9601,,,-5.373000144958496
9605,,8.72504997253418,
9606,,,-5.304000377655029
9612,0.20960728336105325,8.559000015258789,-5.191050052642822
9616,,8.494950294494629,-5.110050201416016
9620,,8.434950828552246,
9621,,,-4.98105001449585
9626,,8.362950325012207,-4.866000175476074
9631,0.20437551666042805,8.313000679016113,-4.674000263214111
9635,,8.29800033569336,
9636,,,-4.489950180053711
9639,,,
9640,,8.275050163269043,
9641,,,-4.300950050354004
9646,,8.314949989318848,-4.116000175476074
9650,,8.373000144958496,
9651,0.18293758579743474,,-4.006050109863281
9653,,,
9655,,8.513999938964844,
9656,,,-3.9220502376556396
9661,,8.605050086975098,-3.781050205230713
9666,,8.710050582885742,-3.7039501667022705
9671,,8.923050880432129,
9672,0.13251806327214774,,-3.727950096130371
9676,,9.103050231933594,-3.7140002250671387
9682,,9.211050033569336,-3.7189502716064453
9686,,9.285000801086426,
9687,,,-3.6760501861572266
9691,,9.345000267028809,
9692,0.08782068224624538,,-3.6880502700805664
9694,,,
9696,,9.376049995422363,-3.6540002822875977
9701,,9.369000434875488,
9702,,,-3.6450002193450928
9706,,9.3589506149292,
9707,,,-3.582000255584717
9714,,9.32805061340332,
9715,0.10333689068078998,,-3.532050132751465
9717,,9.313950538635254,-3.4699501991271973
9721,,9.30405044555664,
9722,,,-3.4069502353668213
9726,,9.318000793457031,
9727,,,-3.328050136566162
9731,0.18889963764768816,,
9732,,9.295050621032715,-3.211050033569336
9734,,,
9736,,9.31605052947998,-3.0960001945495605
9739,,,
9741,,9.32805061340332,-2.965050220489502
9746,,9.349950790405273,-2.823000192642212
9752,0.29254626010185714,9.33495044708252,-2.63700008392334
9756,,9.321000099182129,-2.4160501956939697
9761,,9.313950538635254,-2.233950138092041
9766,,9.31095027923584,-1.9999500513076782
9771,,9.295050621032715,-1.8060001134872437
9772,0.38037238653352595,,
9776,,,
9777,,9.259050369262695,-1.6090500354766846
9781,,9.247050285339355,
9782,,,-1.453950047492981
9787,,9.265950202941895,-1.3339500427246094
9791,,9.265950202941895,
9792,0.41720477364886793,,-1.2430500984191895
9798,,9.238950729370117,-1.2310500144958496
9802,,9.235050201416016,
9803,,,-1.2570000886917114
9806,,9.220050811767578,
9808,,,-1.336050033569336
9812,,9.229950904846191,
9813,,,
9816,,,-1.5660001039505005
9817,0.37698810790604353,,
9819,,9.204000473022461,
9821,,9.141000747680664,
9822,,,-1.9920001029968262
9826,,9.00195026397705,-2.164950132369995
9832,0.27509049368008676,8.955000877380371,-2.4570000171661377
9837,,8.822999954223633,-2.5360500812530518
9839,,,
9842,,8.824950218200684,-2.830050230026245
9847,,8.794050216674805,-2.9260501861572266
9852,,8.794050216674805,
9853,0.1720625331128993,,-3.160950183868408
9854,,,
9857,,8.79900074005127,-3.2809500694274902
9862,,8.79900074005127,-3.3760502338409424
9867,,8.824950218200684,
9869,,,-3.481950283050537
9871,,8.878050804138184,
9872,0.10355370199107958,,-3.558000087738037
9876,,8.977950096130371,
9877,,,-3.6850502490997314
9882,,9.084000587463379,-3.769050121307373
9887,,9.168000221252441,
9888,,,-3.838050127029419
9893,0.09999249679758415,9.249000549316406,-3.8740501403808594
9894,,,
9897,,9.295050621032715,-3.82200026512146
9902,,9.381000518798828,
9903,,,-3.829050064086914
9907,,9.445050239562988,
9908,,,-3.8050501346588135
9914,0.16548618716469718,,
9915,,9.520050048828125,-3.7789502143859863
9918,,9.582000732421875,-3.7549502849578857
9922,,9.59595012664795,
9923,,,-3.6949501037597656
9927,,9.570000648498535,
9928,,,-3.6349501609802246
9933,,9.510000228881836,-3.6010501384735107
9934,0.2531887186172226,,
9938,,9.448050498962402,
9939,,,-3.5460002422332764
9943,,9.35205078125,-3.501000165939331
9948,,9.232050895690918,-3.475050210952759
9953,,9.115050315856934,-3.44100022315979
9954,0.28929718903502116,,
9958,,8.989950180053711,-3.433950185775757
9964,,8.88705062866211,-3.44100022315979
9968,,8.782050132751465,-3.4549500942230225
9973,,8.73705005645752,
9974,0.2700918697427229,,-3.510000228881836
9978,,8.722050666809082,-3.6040501594543457
9983,,8.674050331115723,-3.67995023727417
9987,,,
9988,,8.611950874328613,-3.739950180053711
9993,,8.581050872802734,
9994,0.22809878257439542,,-3.81000018119812
9998,,8.527950286865234,
9999,,,-3.850050210952759
10003,,8.479949951171875,-3.901050090789795
10008,,8.385000228881836,
10009,,,-3.961050271987915
10014,,8.308050155639648,-3.9940502643585205
10015,0.17476873187874783,,
10018,,8.251049995422363,
10019,,,-4.087049961090088
10023,,8.19105052947998,
10024,,,-4.189949989318848
10028,,8.16195011138916,-4.288949966430664
10033,,8.116950035095215,
10034,0.15805844767577204,,-4.411050319671631
10038,,8.109000205993652,
10039,,,-4.486950397491455
10043,,8.089950561523438,
10044,,,-4.570950031280518
10048,,8.128050804138184,
10049,,,-4.630950450897217
10053,,8.230950355529785,
10054,0.1713305269813109,,-4.765050411224365
10059,,8.320050239562988,
10061,,,-4.8319501876831055
10064,,8.401050567626953,-4.945050239562988
10068,,8.482950210571289,
10069,,,-4.954050064086914
10073,,8.554950714111328,
10074,0.19949531991925842,,-4.882050037384033
10080,,8.614950180053711,-4.770000457763672
10083,,8.605050086975098,
10084,,,-4.588050365447998
10085,,,
10088,,8.641050338745117,
10089,,,-4.396049976348877
10093,0.21187064609442668,,
10097,,8.70300006866455,-4.108950138092041
10100,,8.785050392150879,-3.8149502277374268
10105,,8.854050636291504,-3.4770002365112305
10109,,8.952000617980957,-3.0870001316070557
10114,0.1988098023671406,9.034049987792969,-2.63700008392334
10115,,,
10118,,9.163050651550293,
10119,,,-2.124000072479248
10123,,9.225000381469727,
10124,,,-1.588050127029419
10129,,9.460050582885742,
10130,,,-1.1640000343322754
10133,,9.651000022888184,
10134,0.2611397273675285,,-0.6439500451087952
10140,,9.85200023651123,-0.30000001192092896
10144,,10.123050689697266,0.015000000596046448
10149,,10.312050819396973,0.11400000751018524
10154,0.4060677706549737,,
10155,,10.446000099182129,0.10905000567436218
10159,,10.519950866699219,-0.036000002175569534
10164,,10.549050331115723,-0.2689500153064728
10166,,,
10167,,,
10169,,10.525050163269043,
10170,,,-0.7429500222206116
10174,0.5137796035182436,,
10175,,10.492050170898438,-1.1929500102996826
10179,,10.413000106811523,-1.7430000305175781
10184,,10.281000137329102,
10185,,,-2.2099502086639404
10190,,10.089000701904297,
10191,,,-2.6269500255584717
10192,,,
10194,0.47480986328316815,,
10195,,9.87405014038086,-2.932950258255005
10199,,9.667950630187988,
10200,,,-3.1939501762390137
10204,,9.486000061035156,
10205,,,-3.369000196456909
10209,,9.247050285339355,
10210,,,-3.4170000553131104
10214,0.3255403538255151,,
10215,,9.040950775146484,-3.384000062942505
10219,,8.863950729370117,
10220,,,-3.241950035095215
10224,,8.770050048828125,-3.0480000972747803
10229,,8.773050308227539,
10230,,,-2.8279502391815186
10233,,,
10234,,8.74905014038086,-2.4880502223968506
10235,0.2713073180546756,,
10241,,8.815950393676758,-2.1529500484466553
10245,,8.926050186157227,-1.6980000734329224
10249,,9.124950408935547,
10250,,,-1.2960000038146973
10255,,9.475950241088867,
10256,,,-0.7309500575065613
10259,0.3230759576439843,,
10260,,9.939000129699707,
10261,,,-0.4339500069618225
10264,,10.374000549316406,
10265,,,-0.22800001502037048
10270,,10.894050598144531,0.13305000960826874
10272,,,
10275,0.37395839274980647,11.326950073242188,0.4510500133037567
10281,,11.581050872802734,
10282,,,0.5400000214576721
10285,,11.770051002502441,
10286,,,0.5440500378608704
10291,,11.827950477600098,
10292,,,0.3430500030517578
10294,,11.883000373840332,
10295,0.30287703567494606,,-0.09600000083446503
10299,,11.908950805664062,
10300,,,-0.5920500159263611
10304,,11.890050888061523,
10305,,,-1.1740500926971436
10310,,11.883000373840332,
10311,,,
10312,,,-1.801050066947937
10315,,11.72700023651123,
10319,,,-2.3590500354766846
10320,0.24998173795995274,11.571000099182129,-2.8590002059936523
10325,,11.397000312805176,
10326,,,-3.343050241470337
10329,,11.21505069732666,
10330,,,-3.8770501613616943
10335,0.5170151149506638,11.124000549316406,-4.437000274658203
10341,,11.005950927734375,
10342,,,-4.9609503746032715
10345,,10.90095043182373,
10346,,,-5.524050235748291
10350,,10.827000617980957,
10351,,,-6.01200008392334
10352,,,
10355,,10.67400074005127,
10356,0.6225593596809014,,-6.544050216674805
10361,,10.510950088500977,-6.94605016708374
10366,,10.30305004119873,
10367,,,-7.162050247192383
10368,,,
10370,,10.051050186157227,-7.332000255584717
10375,0.6162974785008085,9.706050872802734,-7.483050346374512
10380,,9.262950897216797,-7.317000389099121
10385,,8.820000648498535,-7.030050277709961
10390,,8.434950828552246,-6.733050346374512
10394,,,
10396,,8.131050109863281,-6.388050079345703
10399,0.6710393721517491,,
10401,,7.870050430297852,-6.100950241088867
10404,,7.71405029296875,
10405,,,-5.9070000648498535
10411,,7.555950164794922,-5.75100040435791
10415,,7.348050117492676,
10416,0.8415056685258471,,-5.529000282287598
10420,,7.156050205230713,
10421,,,-5.26800012588501
10425,,6.948000431060791,
10426,,,-4.912950038909912
10430,,6.850050449371338,
10431,,,-4.549950122833252
10432,,,
10435,,6.763950347900391,
10436,0.9371430353223069,,-4.140000343322754
10439,,,
10440,,6.733050346374512,
10441,,,-3.7330501079559326
10446,,6.766050338745117,-3.388050079345703
10450,,6.859950542449951,
10451,,,-3.06000018119812
10457,0.8551573164696423,6.97005033493042,-2.7490501403808594
10461,,7.168050289154053,
10462,,,-2.39205002784729
10466,,7.4509501457214355,
10467,,,-2.1220500469207764
10471,,7.864950180053711,-1.9369500875473022
10476,,8.278950691223145,
10477,,,-1.8580501079559326
10479,0.6074601679565195,,
10482,,8.719950675964355,-1.915950059890747
10487,,9.187050819396973,-1.8370500802993774
10490,,9.586950302124023,
10491,,,-1.7959500551223755
10496,0.3870259423136459,10.0489501953125,-1.8510000705718994
10501,,10.4170503616333,-1.8199501037597656
10506,,10.858050346374512,
10507,,,-1.9920001029968262
10511,,11.208000183105469,-1.9920001029968262
10512,,,
10513,,,
10516,0.46433257197940425,11.557050704956055,-2.104950189590454
10521,,11.76300048828125,
10524,,,-2.127000093460083
10526,,11.880000114440918,-2.203050136566162
10531,,11.992950439453125,-2.335050106048584
10536,,12.05505084991455,-2.364000082015991
10537,0.61537476406213,,
10541,,12.289950370788574,-2.565000057220459
10546,,12.35205078125,
10547,,,-2.6959500312805176
10551,,12.277950286865234,
10552,,,-2.713050127029419
10553,,,
10557,0.7120406845368454,12.235050201416016,-2.851950168609619
10561,,12.02595043182373,
10563,,,-2.7829501628875732
10566,,11.847000122070312,
10570,,,-2.7709500789642334
10571,,11.611950874328613,
10574,,,-2.6479501724243164
10577,,11.50200080871582,
10578,,,-2.5600500106811523
10580,0.750134614943544,,
10583,,11.397000312805176,-2.482950210571289
10587,,11.281950950622559,-2.3800501823425293
10591,,11.302950859069824,
10592,,,-2.4499502182006836
10594,,,
10596,,10.978050231933594,
10597,0.6827591515133428,,-2.2390501499176025
10601,,10.908000946044922,
10602,,,-2.1820499897003174
10606,,10.71405029296875,
10607,,,-2.044950008392334
10611,,10.681050300598145,
10612,,,-2.0329501628875732
10616,,10.567950248718262,
10617,0.5489403280771453,,-2.0710501670837402
10623,,10.518000602722168,-2.124000072479248
10627,,10.444050788879395,-2.064000129699707
10632,,10.390950202941895,
10633,,,-2.014050006866455
10634,,,
10636,0.36250081884357443,,
10637,,10.35300064086914,-1.9759501218795776
10641,,,
10642,,10.35300064086914,-2.014050006866455
10646,,10.401000022888184,
10647,,,-2.124000072479248
10652,,10.381950378417969,-2.1889500617980957
10656,,10.269000053405762,
10657,,,-2.115000009536743
10658,0.14661379501126323,,
10662,,10.159050941467285,-2.076000213623047
10666,,10.080000877380371,
10667,,,-1.987950086593628
10673,,10.053000450134277,-1.9450501203536987
10674,,,
10676,0.09818242418584018,,
10677,,9.931050300598145,-2.1190500259399414
10681,,9.991050720214844,
10682,,,-2.0209500789642334
10687,,9.919050216674805,-2.0190000534057617
10693,,9.807000160217285,-2.0910000801086426
10697,0.23728650812286275,9.64905071258545,-1.9639500379562378
10702,,9.45300006866455,
10703,,,-1.912950038909912
10707,,9.28695011138916,-1.7989500761032104
10712,,9.120000839233398,
10713,,,-1.7340000867843628
10714,,,
10715,,,
10718,,8.907000541687012,
10719,,,-1.7389501333236694
10721,0.3484937246146217,,
10723,,8.884950637817383,
10724,,,-1.6669501066207886
10725,,,
10728,,8.794050216674805,-1.6909500360488892
10732,,8.682000160217285,-1.755000114440918
10738,0.3861626759675377,8.607000350952148,-1.8030000925064087
10742,,8.49000072479248,
10743,,,-1.842000126838684
10747,,8.389050483703613,
10749,,,-1.9350000619888306
10753,,,
10754,,8.329950332641602,-2.014050006866455
10758,,8.20995044708252,
10759,,,-2.0119500160217285
10760,0.35981443738788516,,
10763,,8.188050270080566,-1.8799500465393066
10767,,8.266950607299805,-1.771950125694275
10771,,8.389050483703613,
10772,,,-1.7310000658035278
10776,,8.515950202941895,
10777,0.32810452942345025,,-1.759950041770935
10782,,8.653050422668457,-1.7790000438690186
10788,,8.770050048828125,-1.8490500450134277
10792,,8.859000205993652,
10793,,,-1.8610501289367676
10798,,8.884950637817383,
10799,,,-1.915950059890747
10800,0.2868505466028757,,
10802,,8.884950637817383,
10803,,,-1.8730500936508179
10804,,,
10807,,8.81100082397461,
10808,,,-1.8580501079559326
10813,,8.72700023651123,
10815,,,-1.7770501375198364
10818,,8.701050758361816,-1.6260000467300415
10819,0.2419602035063482,,
10824,,8.698050498962402,
10825,,,-1.5660001039505005
10828,,8.707950592041016,-1.5090000629425049
10832,,8.695950508117676,-1.4059500694274902
10834,,,
10837,0.22175003817599892,8.682000160217285,-1.2960000038146973
10842,,8.722050666809082,
10843,,,-1.2529500722885132
10849,,8.72504997253418,-1.1539500951766968
10853,,8.653050422668457,-1.0060499906539917
10857,,8.662050247192383,-0.8530500531196594
10859,0.20127020904708223,,
10862,,8.587950706481934,-0.7470000386238098
10867,,8.506950378417969,
10868,,,-0.6210000514984131
10872,,8.430000305175781,
10873,,,-0.41895002126693726
10874,,,
10877,,8.337000846862793,-0.22095000743865967
10878,0.18723219382534012,,
10883,,8.320050239562988,
10884,,,-0.11295000463724136
10888,,8.308050155639648,-0.004950000438839197
10892,,8.263050079345703,
10893,,,0.034950003027915955
10898,0.21819766169236127,8.361000061035156,0.12300000339746475
10903,,8.44694995880127,0.2689500153064728
10908,,8.42805004119873,0.4030500054359436
10912,,8.48805046081543,
10913,,,0.5539500117301941
10915,,,
10918,0.2988760915917374,,
10919,,8.421000480651855,0.6859500408172607
10922,,,
10923,,8.410950660705566,
10924,,,0.8629500269889832
10928,,8.346000671386719,1.0999500751495361
10933,,8.45205020904541,1.311000108718872
10938,0.35937064624305265,,
10939,,8.404050827026367,1.5000001192092896
10942,,,
10943,,8.445000648498535,1.7899501323699951
10948,,8.47605037689209,2.007000207901001
10953,,8.442000389099121,2.3140501976013184
10955,,,
10956,,,
10958,,8.44005012512207,
10959,0.4746670942962029,,2.6419501304626465
10963,,8.47605037689209,
10964,,,2.946000099182129
10970,,8.442000389099121,
10971,,,3.264000177383423
10973,,8.583000183105469,
10974,,,3.5329501628875732
10977,,,
10978,0.6066470586137136,8.593050003051758,3.8989500999450684
10983,,8.551950454711914,
10984,,,4.222050189971924
10988,,8.562000274658203,
10989,,,4.653000354766846
10993,,8.503950119018555,
10994,,,5.1060004234313965
10996,,,
10999,0.7431140937999452,8.52405071258545,5.48205041885376
11003,,8.586000442504883,5.836050510406494
11008,,8.509050369262695,
11009,,,6.193050384521484
11014,,8.731950759887695,6.4270501136779785
11020,,9.034049987792969,6.544950485229492
11021,0.8606560955095255,,
11024,,9.445050239562988,
11025,,,6.9370503425598145
11028,,9.856950759887695,
11029,,,6.96405029296875
11033,,10.159050941467285,
11034,,,6.95205020904541
11038,0.9370926925872527,,
11039,,10.234950065612793,7.579050540924072
11043,,,
11044,,9.760950088500977,7.885050296783447
11049,,9.646050453186035,8.029050827026367
11054,,9.405000686645508,8.197050094604492
11059,1.005522973555503,9.261000633239746,8.074950218200684
11064,,9.187050819396973,
11066,,,8.343000411987305
11070,,8.497050285339355,8.282999992370605
11071,,,
11074,,8.677050590515137,
11075,,,8.280000686645508
11077,,,
11078,,8.326950073242188,
11079,1.0024691734426041,,8.503050804138184
11080,,,
11084,,8.039999961853027,
11085,,,8.326050758361816
11089,,7.927050590515137,
11090,,,7.6050004959106445
11094,,7.549050331115723,7.047000408172607
11099,,7.213950157165527,
11100,0.8606102129206776,,6.472950458526611
11104,,6.840000152587891,
11105,,,5.914950370788574
11109,,6.538950443267822,5.260950088500977
11114,,5.911050319671631,4.717950344085693
11115,,,
11120,,5.085000038146973,4.336950302124023
11123,0.636057879327418,,
11126,,4.597050189971924,
11127,,,3.9970502853393555
11130,,4.045950412750244,
11131,,,3.6040501594543457
11134,,3.95805025100708,2.905050039291382
11139,0.6130963186385905,,
11143,,3.7639501094818115,2.3209500312805176
11144,,3.318000078201294,1.9039500951766968
11149,,3.052950143814087,1.540950059890747
11154,,2.7769501209259033,1.1069999933242798
11160,,2.3580000400543213,
11161,,,0.6160500049591064
11163,0.7888724976465017,,
11165,,2.1720001697540283,
11166,,,0.1660500019788742
11169,,2.121000051498413,
11170,,,-0.19905000925064087
11174,,2.053950071334839,
11175,,,-0.5269500017166138
11177,,,
11179,,1.9009500741958618,
11180,1.0984446996070343,,-0.6919500231742859
11185,,1.7640000581741333,-0.7830000519752502
11190,,1.546950101852417,-0.7279500365257263
11194,,1.5610500574111938,
11195,,,-0.42900002002716064
11198,,,
11200,,1.5870001316070557,-0.25394999980926514
11201,1.3640349307775395,,
11205,,1.4940000772476196,-0.003000000026077032
11209,,1.5349500179290771,
11210,,,0.37005001306533813
11214,,1.8889501094818115,
11215,,,0.7669500112533569
11219,,2.3970000743865967,
11220,1.383110316043896,,1.141050100326538
11224,,3.0289502143859863,
11225,,,1.6549500226974487
11230,,3.709050178527832,
11231,,,2.4049501419067383
11235,,4.735949993133545,3.295950174331665
11240,1.0789500963056602,6.268050193786621,
11241,,,4.1449503898620605
11243,,,
11245,,7.507950305938721,4.741950035095215
11252,,7.993950366973877,4.13100004196167
11255,,9.558000564575195,5.149050235748291
11260,0.6161706732942208,,
11261,,9.838050842285156,6.58305025100708
11265,,10.164000511169434,
11266,,,7.183950424194336
11270,,11.041950225830078,
11271,,,7.648050308227539
11272,,,
11275,,11.100000381469727,
11276,,,7.786950588226318
11280,0.6938487300555775,11.116950988769531,
11281,,,7.579050540924072
11285,,11.611950874328613,
11286,,,7.1170501708984375
11287,,,
11288,,,
11290,,11.916000366210938,
11291,,,6.565950393676758
11295,,12.661050796508789,
11296,,,5.035950183868408
11301,,13.159050941467285,
11302,,,3.2190001010894775
11304,1.0046007299848514,,
11306,,13.870050430297852,
11307,,,1.6050000190734863
11310,,13.91295051574707,0.3550500273704529
11311,,,
11312,,,
11316,,13.522950172424316,
11318,,,-0.42195001244544983
11322,1.2550321378810416,12.919050216674805,-1.1929500102996826
11327,,12.229950904846191,-1.915950059890747
11330,,11.737051010131836,
11331,,,-2.433000087738037
11335,,11.338950157165527,
11336,,,-2.7660000324249268
11340,,10.92300033569336,
11341,1.3713616872837937,,-2.8590002059936523
11344,,,
11345,,10.420050621032715,
11346,,,-2.7199501991271973
11351,,9.808950424194336,-1.9300501346588135
11352,,,
11355,,9.418950080871582,
11356,,,-0.8790000677108765
11360,1.2362746096052504,,
11361,,9.426000595092773,-0.15600000321865082
11365,,9.781050682067871,
11368,,,0.208950012922287
11371,,10.212000846862793,0.38895002007484436
11376,,10.971000671386719,0.5350500345230103
11377,,,
11381,1.1174547636020438,,
11383,,11.631000518798828,0.8700000643730164
11386,,12.019050598144531,1.6530001163482666
11391,,12.397950172424316,
11392,,,2.3430001735687256
11393,,,
11396,,12.771000862121582,2.8570501804351807
11401,,12.979050636291504,
11402,,,3.2479500770568848
11404,0.9157836880705954,,
11409,,13.306950569152832,2.91195011138916
11410,,13.741050720214844,2.3140501976013184
11418,,13.719000816345215,2.0940001010894775
11421,,13.531950950622559,
11422,0.8354026652151365,,1.9500000476837158
11426,,13.585050582885742,
11427,,,1.7010000944137573
11431,,13.285950660705566,
11432,,,1.5570000410079956
11435,,,
11436,,12.666000366210938,1.593000054359436
11441,0.8950139371756439,,
11442,,12.157950401306152,1.7700001001358032
11444,,,
11446,,11.914050102233887,
11447,,,1.7440500259399414
11451,,11.536050796508789,1.6270500421524048
11456,,10.92495059967041,
11457,,,1.7610000371932983
11461,,10.563000679016113,
11462,0.30117858305311973,,1.6549500226974487
11468,,10.246950149536133,1.3510500192642212
11471,,10.117950439453125,1.1329500675201416
11474,,,
11476,,10.264050483703613,0.7030500173568726
11481,,10.156050682067871,
11482,0.3435101973118062,,0.25200000405311584
11487,,10.504050254821777,0.16395001113414764
11491,,10.132950782775879,
11492,,,0.6739500164985657
11496,,9.463950157165527,
11497,,,1.4640001058578491
11501,0.4346073092024615,,
11502,,9.268050193786621,2.0190000534057617
11506,,9.139050483703613,
11507,,,2.7090001106262207
11511,,8.835000038146973,
11512,,,3.3360002040863037
11513,,,
11516,,8.77500057220459,
11517,,,3.6469502449035645
11522,0.44913302723192455,8.830050468444824,
11523,,,3.784050226211548
11527,,8.968950271606445,
11528,,,3.6790502071380615
11533,,9.127050399780273,3.463050127029419
11537,,9.277950286865234,3.075000047683716
11541,,9.349950790405273,
11542,0.5229541197759953,,2.6730000972747803
11545,,,
11546,,9.325950622558594,
11547,,,2.1730501651763916
11552,,9.295050621032715,1.6459500789642334
11554,,,
11557,,9.32295036315918,
11558,,,1.1839500665664673
11562,0.6098752536010841,9.385050773620605,0.7290000319480896
11567,,9.381000518798828,0.3769500255584717
11572,,9.412050247192383,
11576,,,0.04605000093579292
11577,,,-0.15405000746250153
11578,,9.454950332641602,
11583,,9.570000648498535,-0.24705001711845398
11586,0.5162904953025764,,
11588,,9.62700080871582,-0.24900001287460327
11592,,9.766050338745117,-0.34800001978874207
11594,,,
11597,,9.819000244140625,-0.5179499983787537
11602,,9.967050552368164,-0.7159500122070312
11603,0.46812395569362714,,
11607,,9.996000289916992,
11608,,,-0.7740000486373901
11612,,9.946050643920898,
11613,,,-0.7639500498771667
11618,,9.867000579833984,
11619,,,-0.597000002861023
11622,0.3266453076738394,,
11623,,9.771000862121582,-0.32100000977516174
11627,,,
11628,,9.742050170898438,0.043950002640485764
11633,,9.64905071258545,0.5230500102043152
11635,,,
11637,,9.466950416564941,
11638,,,0.9559500217437744
11643,,9.34695053100586,1.6410000324249268
11646,0.15491884156458832,,
11649,,9.120000839233398,2.137050151824951
11654,,9.010050773620605,
11655,,,2.4310500621795654
11658,,8.962050437927246,
11659,,,2.8600502014160156
11662,0.07159120727262973,,
11665,,8.931000709533691,3.1710002422332764
11667,,8.992950439453125,3.4420502185821533
11672,,9.160050392150879,3.7189502716064453
11673,,,
11676,,,
11677,,9.32805061340332,3.7789502143859863
11682,,9.541050910949707,3.745950222015381
11683,0.10337512810277094,,
11688,,9.723000526428223,3.655050277709961
11692,,9.934050559997559,3.496950149536133
11699,,10.06095027923584,3.3169500827789307
11702,,10.228050231933594,
11704,0.12072117463742368,,3.1300501823425293
11707,,10.348050117492676,
11708,,,2.866950035095215
11712,,10.93695068359375,2.5920000076293945
11718,,10.75005054473877,2.5630500316619873
11722,,10.591950416564941,2.319000005722046
11723,0.23636259663022213,,
11726,,,
11727,,10.482000350952148,2.1100502014160156
11732,,10.243050575256348,
11733,,,1.8760501146316528
11737,,9.984000205993652,
11738,,,1.7320500612258911
11743,0.293215609497373,9.723000526428223,1.6960500478744507
11747,,,
11750,,9.31605052947998,1.8130500316619873
11752,,8.842050552368164,
11753,,,1.9039500951766968
11757,,8.425050735473633,
11758,,,2.0190000534057617
11760,,,
11763,0.3515320128891146,8.077950477600098,2.0650501251220703
11768,,7.839000225067139,1.998000144958496
11772,,7.807950496673584,
11773,,,1.9240500926971436
11777,,7.70205020904541,
11778,,,1.8090001344680786
11782,,7.51800012588501,
11783,0.3306244161128349,,1.633950114250183
11789,,7.3909502029418945,1.4929500818252563
11792,,,
11793,,7.326000213623047,1.324950098991394
11798,,7.422000408172607,1.071000099182129
11803,0.22308802984930015,7.587000370025635,0.7380000352859497
11808,,7.744950294494629,
11809,,,0.35805001854896545
11814,,7.8409504890441895,0.15405000746250153
11818,,8.002050399780273,
11819,,,0.07500000298023224
11823,,8.125950813293457,
11825,0.31742429022089613,,0.07500000298023224
11827,,,
11829,,8.281949996948242,0.1879500150680542
11833,,8.461050033569336,
11834,,,0.40995001792907715
11838,,8.740950584411621,0.6640500426292419
11843,0.37760917616404194,8.935050010681152,0.9490500688552856
11846,,,
11848,,9.1360502243042,1.1959500312805176
11853,,9.277950286865234,
11854,,,1.4299501180648804
11858,,9.412050247192383,
11859,,,1.6549500226974487
11863,,9.56505012512207,
11865,0.2887717150494975,,1.8660000562667847
11868,,9.736950874328613,2.0789999961853027
11872,,,
11873,,9.928950309753418,2.2729501724243164
11876,,,
11878,,10.09695053100586,
11879,,,2.4690001010894775
11883,0.1303313977103068,,
11884,,10.1850004196167,2.686950206756592
11888,,10.306950569152832,
11889,,,2.8999500274658203
11895,,10.366950035095215,3.06600022315979
11899,,10.456050872802734,3.1900501251220703
11903,0.08865925283123413,,
11904,,10.507950782775879,3.217050075531006
11909,,10.61400032043457,3.0870001316070557
11914,,10.707000732421875,2.8620002269744873
11919,,10.798050880432129,2.6110501289367676
11924,,10.978050231933594,
11925,,,2.206050157546997
11927,0.2547063106775018,,
11931,,,
11932,,11.095050811767578,1.7899501323699951
11935,,11.184000968933105,1.4040000438690186
11938,,11.17905044555664,
11939,,,1.0950000286102295
11944,,11.155050277709961,
11945,,,0.8560500144958496
11948,0.39470744211735287,,
11950,,11.1670503616333,0.6880500316619873
11953,,11.104950904846191,
11954,,,0.6379500031471252
11959,,11.245950698852539,0.597000002861023
11963,0.43814067252039723,,
11964,,11.293950080871582,0.6430500149726868
11969,,11.461050987243652,
11970,,,0.6589500308036804
11974,,11.653050422668457,
11975,,,0.7960500121116638
11977,,,
11980,,11.872950553894043,
11981,,,0.9970500469207764
11984,,12.007050514221191,1.2679500579833984
11985,0.47652380426616175,,
11989,,12.247050285339355,
11990,,,1.4059500694274902
11994,,12.2989501953125,
11995,,,1.5289500951766968
11999,,12.486001014709473,
12000,,,1.5670500993728638
12004,0.49279777596779983,,
12005,,12.62505054473877,1.4520000219345093
12009,,12.62505054473877,
12010,,,1.3990501165390015
12014,,12.658050537109375,
12015,,,1.3200000524520874
12019,,12.571950912475586,
12020,,,1.1980500221252441
12024,,12.430950164794922,
12025,0.42200639232770326,,1.0900501012802124
12031,,12.370950698852539,0.9040500521659851
12033,,,
12034,,12.31605052947998,
12035,,,0.6240000128746033
12038,,,
12039,,12.223050117492676,0.3049500286579132
12044,0.3912772645682606,12.058050155639648,
12045,,,-0.015000000596046448
12048,,,
12049,,11.839950561523438,-0.27300000190734863
12054,,11.599950790405273,-0.5850000381469727
12059,,11.346000671386719,
12060,,,-0.8050500154495239
12064,,10.981950759887695,
12065,0.4634986939674174,,-0.984000027179718
12070,,10.609050750732422,-1.0470000505447388
12074,,,
12075,,10.270950317382812,-1.0519500970840454
12079,,,-1.0200001001358032
12080,,9.856950759887695,
12085,,9.445050239562988,-0.9250500202178955
12088,0.4368524868666779,,
12092,,9.03795051574707,-0.9010500311851501
12095,,8.71500015258789,-0.8190000653266907
12099,,8.373000144958496,-0.7120500206947327
12104,,8.089950561523438,-0.6010500192642212
12105,0.4029792285516761,,
12112,,7.834050178527832,
12113,,,-0.43605002760887146
12114,,7.6210503578186035,
12115,,,-0.17295001447200775
12119,,7.338000297546387,
12120,,,0.12495000660419464
12124,,7.137000560760498,
12125,0.4953179037238582,,0.41805002093315125
12127,,,
12130,,6.949950218200684,0.7050000429153442
12135,,6.847950458526611,0.9180000424385071
12140,,6.8520002365112305,1.0830000638961792
12145,0.6139342846371182,6.9310503005981445,1.15500009059906
12149,,,
12150,,7.051050186157227,1.2049500942230225
12152,,,
12155,,7.156050205230713,
12156,,,1.1500500440597534
12164,,7.200000286102295,
12165,,,1.0500000715255737
12167,,7.243050575256348,
12168,0.6685623743549794,,
12170,,7.252050399780273,0.8530500531196594
12177,,7.309950351715088,0.781950056552887
12180,,7.389000415802002,
12181,,,0.8340000510215759
12185,,7.579950332641602,0.8650500178337097
12186,0.719437477719596,,
12190,,7.774050235748291,
12191,,,0.8650500178337097
12195,,8.164050102233887,0.8530500531196594
12198,,,
12200,,8.434950828552246,
12201,,,0.8370000123977661
12206,,8.71500015258789,
12207,,,0.8770500421524048
12209,0.7283797968426131,,
12211,,8.808000564575195,
12212,,,0.9490500688552856
12215,,8.822999954223633,0.9630000591278076
12220,,9.067049980163574,
12221,,,1.0690500736236572
12225,,8.686050415039062,
12226,,,1.0900501012802124
12227,0.690877874174812,,
12230,,8.406000137329102,1.0279500484466553
12235,,8.145000457763672,
12236,,,1.2199500799179077
12240,,7.81695032119751,
12241,,,1.2340500354766846
12246,,7.495950222015381,
12247,,,1.2120000123977661
12249,0.4814241725776053,,
12253,,7.3120503425598145,
12254,,,1.015950083732605
12258,,7.132050514221191,0.6810000538825989
12262,,6.960000514984131,0.3340500295162201
12265,0.3016607381482253,,
12266,,6.97005033493042,-0.1660500019788742
12270,,7.053000450134277,
12271,,,-0.7330500483512878
12277,,,
12278,,7.204050540924072,-1.3290001153945923
12279,,,
12281,,7.425000190734863,-2.0380501747131348
12286,0.16031649179303667,7.590000152587891,
12287,,,-2.614950180053711
12290,,7.663950443267822,
12291,,,-2.8690500259399414
12295,,8.06100082397461,
12296,,,-3.223050117492676
12301,,8.536050796508789,
12302,,,-3.640050172805786
12306,0.43819280673790884,,
12307,,8.947050094604492,-4.0320000648498535
12311,,9.463950157165527,-4.471050262451172
12314,,,
12315,,,
12316,,10.201950073242188,-4.839000225067139
12321,,10.777050971984863,
12323,,,-5.004000186920166
12327,0.7132637197256009,11.17905044555664,-4.779000282287598
12331,,11.551950454711914,-4.438950061798096
12336,,11.847000122070312,-4.168950080871582
12341,,12.08595085144043,
12342,,,-3.8740501403808594
12346,0.8211236485519356,,
12347,,12.283050537109375,
12348,,,-3.5490002632141113
12349,,,
12351,,12.333000183105469,-3.1440000534057617
12354,,,
12356,,12.225000381469727,-2.682000160217285
12361,,12.229950904846191,-2.3110501766204834
12366,0.800990863440765,,
12367,,12.165000915527344,-2.0190000534057617
12371,,12.01395034790039,-1.5570000410079956
12376,,11.847000122070312,-1.3030500411987305
12381,,11.755950927734375,
12382,,,-1.128000020980835
12387,,11.785050392150879,-1.0249500274658203
12390,0.693892582855627,,
12392,,11.947050094604492,
12393,,,-0.9820500612258911
12395,,,
12396,,12.199050903320312,-1.0780500173568726
12400,,,
12401,,12.406950950622559,
12402,,,-1.3120501041412354
12406,0.6955555480327172,12.511950492858887,
12407,,,-1.4610000848770142
12412,,12.421051025390625,-1.64805006980896
12416,,12.418951034545898,
12417,,,-2.0500500202178955
12421,,12.349950790405273,-2.45205020904541
12426,0.7254470548522258,12.10995101928711,-2.686950206756592
12431,,11.976000785827637,-2.9790000915527344
12434,,,
12436,,12.012001037597656,-3.220950126647949
12441,,12.187050819396973,-3.5460002422332764
12446,,12.028950691223145,
12447,0.6498194526299683,,-3.7140002250671387
12449,,,
12451,,11.527950286865234,
12452,,,-3.6010501384735107
12456,,11.113950729370117,-3.489000082015991
12461,,10.591950416564941,
12462,,,-3.3139500617980957
12466,,10.159050941467285,
12467,0.37155516197716354,,-3.324000120162964
12471,,9.678000450134277,
12472,,,-3.2370002269744873
12474,,,
12476,,9.262950897216797,
12477,,,-3.180000066757202
12479,,,
12481,,8.73705005645752,
12482,,,-3.0289502143859863
12486,,8.29800033569336,
12487,0.1973735778327328,,-2.811000108718872
12491,,7.990050315856934,
12492,,,-2.533950090408325
12496,,7.639950275421143,
12497,,,-2.2290000915527344
12501,,7.3810505867004395,
12502,,,-2.0119500160217285
12508,0.42725228441385493,7.314000129699707,-1.9450501203536987
12512,,7.225950241088867,-1.897050142288208
12517,,7.111050128936768,-1.7770501375198364
12518,,,
12519,,,
12522,,6.940950393676758,
12523,,,-1.6570501327514648
12526,,6.8550004959106445,-1.4989501237869263
12527,0.5611899538352944,,
12532,,6.910050392150879,-1.4350500106811523
12537,,7.039050102233887,
12538,,,-1.377000093460083
12542,,7.333950519561768,
12543,,,-1.4730000495910645
12547,,7.513050556182861,-1.4680501222610474
12548,0.6047790044111016,,
12549,,,
12552,,7.743000507354736,-1.50600004196167
12555,,,
12558,,8.052000045776367,-1.5420000553131104
12562,,8.46405029296875,
12563,,,-1.6639500856399536
12567,,8.791950225830078,
12568,0.5664294797145809,,-1.7749500274658203
12572,,9.03795051574707,
12573,,,-1.675950050354004
12576,,9.394950866699219,
12578,,,-1.6980000734329224
12582,,9.687000274658203,-1.6600500345230103
12587,0.4386377356977651,9.951000213623047,-1.6380001306533813
12592,,10.270950317382812,-1.6549500226974487
12594,,,
12597,,10.630950927734375,
12598,,,-1.7910001277923584
12602,,10.77405071258545,
12603,,,-1.8130500316619873
12607,,10.92300033569336,
12608,0.3305105164920776,,-1.7770501375198364
12612,,11.277000427246094,
12613,,,-1.8460501432418823
12618,,11.4660005569458,-1.9350000619888306
12624,,11.719950675964355,-2.086050033569336
12628,,12.012001037597656,
12629,0.2728186006508427,,-2.3680500984191895
12632,,12.139050483703613,
12633,,,-2.54295015335083
12637,,12.430950164794922,
12638,,,-2.8620002269744873
12642,,12.62700080871582,
12643,,,-3.181950092315674
12647,0.4734090532122537,12.556050300598145,-3.3979501724243164
12650,,,
12652,,12.361950874328613,
12653,,,-3.520050048828125
12658,,12.10995101928711,-3.630000114440918
12663,,11.72700023651123,-3.6540002822875977
12668,0.6835685943334634,,
12669,,11.3100004196167,-3.6880502700805664
12673,,10.93695068359375,
12674,,,-3.5869500637054443
12676,,,
12678,,10.492050170898438,-3.4050002098083496
12682,,10.1089506149292,
12683,,,-3.29295015335083
12684,,,
12689,0.6872810535318752,,
12690,,9.86205005645752,-3.2470500469207764
12693,,9.60300064086914,-3.199050188064575
12698,,9.337950706481934,-3.259050130844116
12703,,9.084000587463379,-3.2950501441955566
12708,,8.728950500488281,
12709,,,-3.3070502281188965
12710,0.49042645525123546,,
12714,,8.513999938964844,
12715,,,-3.3550500869750977
12716,,,
12718,,8.344050407409668,
12719,,,-3.5370001792907715
12723,,8.133000373840332,
12724,,,-3.649050235748291
12726,,,
12728,,7.968000411987305,
12729,,,-3.700050115585327
12730,0.2999088839405046,,
12733,,7.7500505447387695,
12734,,,-3.633000135421753
12739,,7.549050331115723,-3.5179500579833984
12743,,7.444050312042236,-3.4270501136779785
12748,0.3162456151786463,,
12749,,7.398000240325928,-3.4069502353668213
12750,,,
12755,,7.425000190734863,-3.3979501724243164
12756,,,
12758,,7.3720502853393555,-3.3139500617980957
12763,,7.410000324249268,-3.2350502014160156
12769,,7.396050453186035,-3.123000144958496
12772,0.42959787994728305,,
12774,,7.306950569152832,
12775,,,-2.9479501247406006
12778,,,
12779,,7.282950401306152,
12780,,,-2.7870001792907715
12783,,7.338000297546387,
12784,,,-2.7490501403808594
12788,,7.342950344085693,-2.694000244140625
12789,0.5632917077817219,,
12793,,7.3690505027771,
12794,,,-2.7750000953674316
12796,,,
12798,,7.386000156402588,
12799,,,-2.920950174331665
12805,,7.401000499725342,-3.094050168991089
12809,0.707823420223518,,
12810,,7.318950176239014,-3.249000072479248
12814,,7.282950401306152,-3.489000082015991
12819,,7.342950344085693,-4.051949977874756
12824,,7.51800012588501,
12826,,,-4.678950309753418
12829,,7.767000198364258,
12832,,,-5.224950313568115
12833,0.7266345654915684,,
12834,,8.052000045776367,-5.506950378417969
12839,,8.348999977111816,-5.6170501708984375
12844,,8.880000114440918,-5.823000431060791
12849,,9.567000389099121,
12850,,,-6.136950492858887
12853,0.5843787759261104,,
12855,,10.147050857543945,
12856,,,-6.22605037689209
12859,,10.603950500488281,-6.277950286865234
12864,,10.884000778198242,
12865,,,-6.264000415802002
12869,,10.91295051574707,
12870,0.5549828723464084,,-6.072000503540039
12874,,10.73805046081543,-5.84505033493042
12877,,,
12879,,10.534950256347656,-5.746950149536133
12880,,,
12884,,10.330950736999512,-5.593050479888916
12889,0.5393954920937157,,
12890,,10.13700008392334,-5.422950267791748
12894,,10.056000709533691,-5.2510504722595215
12899,,9.934050559997559,
12900,,,-5.127000331878662
12904,,9.84000015258789,-4.999950408935547
12909,,9.646050453186035,
12910,0.4929426546036482,,-4.8510003089904785
12914,,9.354000091552734,
12915,,,-4.705049991607666
12921,,9.004950523376465,-4.581000328063965
12924,,8.575950622558594,
12925,,,-4.489950180053711
12927,,,
12929,,8.257950782775879,-4.456050395965576
12930,0.37703790847710156,,
12934,,7.9800004959106445,
12935,,,-4.465950012207031
12939,,7.954050540924072,
12940,,,-4.5259504318237305
12944,,8.004000663757324,
12945,,,-4.6120500564575195
12949,,8.245950698852539,
12950,0.2735734737732244,,-4.5520501136779785
12954,,8.49000072479248,
12955,,,-4.168950080871582
12957,,,
12959,,8.847000122070312,
12960,,,-3.7140002250671387
12964,,9.259050369262695,
12965,,,-3.181950092315674
12968,,,
12970,0.23615185808310551,,
12971,,9.663000106811523,-2.6290500164031982
12975,,9.985950469970703,-2.047950029373169
12979,,10.111050605773926,
12980,,,-1.5690001249313354
12985,,10.38900089263916,-1.2120000123977661
12989,0.3926492693000095,,
12990,,10.330950736999512,-0.8380500674247742
12995,,10.567950248718262,-0.49605002999305725
12996,,,
13000,,10.414950370788574,-0.3379500210285187
13005,,10.360050201416016,-0.40995001792907715
13010,0.5873657113668326,10.36500072479248,-0.5389500260353088
13014,,10.212000846862793,
13015,,,-0.775950014591217
13020,,10.09695053100586,-1.1880000829696655
13025,,9.879000663757324,
13026,,,-1.377000093460083
13027,,,
13030,,9.951000213623047,-1.8679500818252563
13031,0.6190596325965343,,
13035,,9.984000205993652,
13036,,,
13037,,,-2.2890000343322754
13040,,9.916950225830078,
13041,,,-2.7900002002716064
13045,,9.903000831604004,
13046,,,-3.259050130844116
13050,0.46198807621406474,,
13051,,9.879000663757324,-3.751950263977051
13055,,9.93600082397461,
13056,,,-4.177950382232666
13060,,9.972000122070312,
13061,,,-4.465950012207031
13065,,9.988950729370117,
13066,,,-4.6020002365112305
13070,,9.973950386047363,-4.578000068664551
13073,0.21846314764008135,,
13076,,,
13079,,9.814050674438477,-4.399050235748291
13081,,9.62700080871582,
13082,,,-4.234050273895264
13086,,9.361950874328613,
13087,,,-4.153950214385986
13090,0.1695161447959214,9.067049980163574,
13091,,,-4.207050323486328
13095,,8.578950881958008,
13096,,,-4.111050128936768
13100,,8.337000846862793,
13101,,,-4.255050182342529
13105,,8.218950271606445,
13106,,,-4.61400032043457
13110,0.09317640826558415,,
13111,,8.245950698852539,-4.927950382232666
13115,,8.409000396728516,
13116,,,-5.10705041885376
13120,,8.641050338745117,
13121,,,-5.079000473022461
13125,,8.916000366210938,
13126,,,-4.5329999923706055
13130,,,-3.9079501628875732
13131,0.20239622253155423,9.121950149536133,
13136,,9.357000350952148,
13137,,,-3.478950262069702
13140,,9.673050880432129,
13141,,,-3.0510001182556152
13145,,9.679950714111328,
13146,,,-2.485950231552124
13150,0.24836915023636302,,
13151,,9.529050827026367,-2.0329501628875732
13155,,9.417000770568848,
13156,,,-1.6570501327514648
13158,,,
13160,,9.04995059967041,
13161,,,-1.4899500608444214
13166,,8.808000564575195,
13167,,,-1.4940000772476196
13169,,,
13170,,8.4660005569458,
13171,0.22189826944051574,,-1.588050127029419
13175,,8.275050163269043,
13176,,,-1.6930500268936157
13181,,8.218950271606445,
13182,,,-1.810050129890442
13186,,8.386950492858887,-1.9800001382827759
13190,0.27467686568539973,,
13191,,8.575950622558594,-2.1100502014160156
13195,,8.851950645446777,
13196,,,-2.127000093460083
13197,,,
13202,,9.213000297546387,-2.124000072479248
13206,,9.631950378417969,
13207,,,-2.074050188064575
13211,,10.189950942993164,
13212,,,-2.026050090789795
13214,0.3088801660364286,,
13217,,10.768950462341309,-1.9900500774383545
13220,,11.257950782775879,
13221,,,-1.9450501203536987
13226,,11.491950988769531,
13227,,,-1.8730500936508179
13228,,,
13231,0.3505770222584947,11.737051010131836,-1.801050066947937
13235,,,
13236,,11.725050926208496,-1.8679500818252563
13241,,11.607000350952148,-2.0160000324249268
13243,,,
13244,,,
13246,,11.473050117492676,-2.1529500484466553
13252,0.4134971069363886,11.344050407409668,-2.385000228881836
13256,,11.092950820922852,
13257,,,-2.5219500064849854
13261,,10.879950523376465,
13262,,,-2.6479501724243164
13266,,10.606950759887695,
13267,,,-2.653050184249878
13271,0.4439357758222307,,
13272,,10.606950759887695,-2.7990000247955322
13277,,10.513050079345703,-2.830050230026245
13281,,10.450950622558594,
13282,,,-2.7750000953674316
13286,,10.321950912475586,
13287,,,-2.701050043106079
13291,0.3259780787757821,10.065000534057617,-2.5290000438690186
13294,,,
13296,,9.795000076293945,
13297,,,-2.2699501514434814
13301,,9.522000312805176,
13302,,,-2.0239500999450684
13304,,,
13306,,9.180000305175781,
13307,,,-1.76295006275177
13311,0.2119275893012121,,
13312,,8.938050270080566,-1.533000111579895
13318,,8.667000770568848,
13319,,,-1.3510500192642212
13322,,8.461050033569336,-1.1809500455856323
13327,,8.373000144958496,-1.01295006275177
